FileType,0
Number of Points,3000
Sweep Time,3e+08
Start Frequency,0
Stop Frequency,2e+08
Average Count,10
Average Type,0
RBW,10000
RBW Filter,0
RBW Filter BW,0
VBW,10000
Sweep Type,0
X Axis Scale,1
PreAmp State,0
Trigger Source,0
Trigger Level,-25
Trigger Edge,0
Trigger Delay Switch,0
Trigger Delay,1
Attenuation,0
Ref Level Offset,0
External Gain,0
Trace Type,0
Detector,0
Trace Math,5
Trace Math Oper1,4
Trace Math Oper2,5
Trace Math Offset,0
Trace Name,0
Full Span,2e+08
Y Axis Unit,0
DATA,
0,-30.7527
66688.9,-86.4488
133378,-76.4862
200067,-71.7716
266756,-76.9743
333444,-80.0872
400133,-79.2712
466822,-79.7448
533511,-77.6956
600200,-79.6515
666889,-80.3239
733578,-80.2914
800267,-79.7066
866956,-80.3534
933645,-78.8506
1.00033e+06,-79.9747
1.06702e+06,-79.8475
1.13371e+06,-79.1829
1.2004e+06,-79.4857
1.26709e+06,-79.4288
1.33378e+06,-78.9491
1.40047e+06,-78.6149
1.46716e+06,-79.3145
1.53384e+06,-80.3934
1.60053e+06,-79.3113
1.66722e+06,-80.7253
1.73391e+06,-78.2343
1.8006e+06,-78.3742
1.86729e+06,-78.6163
1.93398e+06,-78.9088
2.00067e+06,-79.9822
2.06736e+06,-79.65
2.13404e+06,-78.9605
2.20073e+06,-79.1677
2.26742e+06,-78.4397
2.33411e+06,-76.0181
2.4008e+06,-77.0321
2.46749e+06,-78.5633
2.53418e+06,-78.2281
2.60087e+06,-77.0211
2.66756e+06,-78.3367
2.73424e+06,-78.9808
2.80093e+06,-78.8764
2.86762e+06,-79.7049
2.93431e+06,-78.1951
3.001e+06,-77.4272
3.06769e+06,-75.0581
3.13438e+06,-78.8972
3.20107e+06,-77.2853
3.26776e+06,-78.553
3.33444e+06,-79.3181
3.40113e+06,-78.234
3.46782e+06,-76.8395
3.53451e+06,-75.1128
3.6012e+06,-77.2448
3.66789e+06,-76.3281
3.73458e+06,-75.1039
3.80127e+06,-78.3787
3.86796e+06,-79.6315
3.93464e+06,-77.6358
4.00133e+06,-79.1633
4.06802e+06,-78.9514
4.13471e+06,-76.2245
4.2014e+06,-76.4468
4.26809e+06,-76.3783
4.33478e+06,-75.976
4.40147e+06,-77.1044
4.46816e+06,-79.0336
4.53484e+06,-79.1352
4.60153e+06,-79.0333
4.66822e+06,-77.6116
4.73491e+06,-76.7142
4.8016e+06,-77.8729
4.86829e+06,-78.5366
4.93498e+06,-77.1809
5.00167e+06,-77.4589
5.06836e+06,-79.0586
5.13505e+06,-78.7081
5.20173e+06,-79.1425
5.26842e+06,-78.4283
5.33511e+06,-78.7714
5.4018e+06,-79.5293
5.46849e+06,-79.4873
5.53518e+06,-77.4724
5.60187e+06,-77.871
5.66856e+06,-78.6308
5.73525e+06,-78.5262
5.80193e+06,-78.1324
5.86862e+06,-80.1913
5.93531e+06,-78.7019
6.002e+06,-79.4306
6.06869e+06,-78.7696
6.13538e+06,-78.7609
6.20207e+06,-80.1453
6.26876e+06,-79.2701
6.33545e+06,-77.9855
6.40213e+06,-78.4461
6.46882e+06,-80.0551
6.53551e+06,-79.0022
6.6022e+06,-77.6256
6.66889e+06,-80.761
6.73558e+06,-81.1677
6.80227e+06,-79.5446
6.86896e+06,-79.2959
6.93565e+06,-80.3153
7.00233e+06,-80.8357
7.06902e+06,-80.2439
7.13571e+06,-80.5476
7.2024e+06,-79.5156
7.26909e+06,-80.0879
7.33578e+06,-79.3448
7.40247e+06,-80.526
7.46916e+06,-80.2479
7.53585e+06,-80.1521
7.60253e+06,-79.6744
7.66922e+06,-80.4162
7.73591e+06,-80.7262
7.8026e+06,-80.1866
7.86929e+06,-79.7118
7.93598e+06,-80.7632
8.00267e+06,-80.7685
8.06936e+06,-78.9897
8.13605e+06,-80.6506
8.20273e+06,-80.2512
8.26942e+06,-80.7142
8.33611e+06,-79.0198
8.4028e+06,-80.125
8.46949e+06,-80.5653
8.53618e+06,-80.5442
8.60287e+06,-80.3317
8.66956e+06,-81.0123
8.73625e+06,-80.5699
8.80293e+06,-79.5397
8.86962e+06,-79.3822
8.93631e+06,-80.7554
9.003e+06,-79.1422
9.06969e+06,-80.5954
9.13638e+06,-80.5427
9.20307e+06,-79.6705
9.26976e+06,-80.5529
9.33645e+06,-80.2789
9.40313e+06,-80.0578
9.46982e+06,-80.4118
9.53651e+06,-80.2479
9.6032e+06,-79.9147
9.66989e+06,-79.6315
9.73658e+06,-80.8888
9.80327e+06,-80.7319
9.86996e+06,-80.4626
9.93665e+06,-80.3387
1.00033e+07,-78.985
1.007e+07,-79.9173
1.01367e+07,-79.941
1.02034e+07,-78.6722
1.02701e+07,-66.8422
1.03368e+07,-79.4999
1.04035e+07,-80.8126
1.04702e+07,-79.9913
1.05368e+07,-80.7841
1.06035e+07,-78.6636
1.06702e+07,-80.1031
1.07369e+07,-80.5214
1.08036e+07,-80.6792
1.08703e+07,-80.091
1.0937e+07,-79.864
1.10037e+07,-80.2708
1.10704e+07,-79.9503
1.1137e+07,-79.3298
1.12037e+07,-80.6163
1.12704e+07,-80.8084
1.13371e+07,-80.2265
1.14038e+07,-80.2613
1.14705e+07,-80.7093
1.15372e+07,-78.6533
1.16039e+07,-79.6883
1.16706e+07,-79.1879
1.17372e+07,-81.0282
1.18039e+07,-81.033
1.18706e+07,-81.1273
1.19373e+07,-79.7804
1.2004e+07,-79.0866
1.20707e+07,-82.1137
1.21374e+07,-82.9556
1.22041e+07,-80.9327
1.22708e+07,-81.6201
1.23374e+07,-81.5952
1.24041e+07,-81.6709
1.24708e+07,-81.957
1.25375e+07,-81.3509
1.26042e+07,-82.5661
1.26709e+07,-82.3275
1.27376e+07,-82.3138
1.28043e+07,-81.8285
1.2871e+07,-82.359
1.29376e+07,-80.8621
1.30043e+07,-82.1351
1.3071e+07,-81.9838
1.31377e+07,-82.3138
1.32044e+07,-81.9732
1.32711e+07,-81.7377
1.33378e+07,-81.4244
1.34045e+07,-82.8955
1.34712e+07,-82.2814
1.35378e+07,-81.7695
1.36045e+07,-80.6033
1.36712e+07,-82.9857
1.37379e+07,-80.5508
1.38046e+07,-81.5679
1.38713e+07,-82.5014
1.3938e+07,-81.999
1.40047e+07,-82.353
1.40714e+07,-81.1166
1.4138e+07,-82.6939
1.42047e+07,-81.1704
1.42714e+07,-81.3455
1.43381e+07,-80.4493
1.44048e+07,-82.0527
1.44715e+07,-82.3193
1.45382e+07,-82.5399
1.46049e+07,-81.2603
1.46716e+07,-81.7447
1.47382e+07,-81.6517
1.48049e+07,-81.1336
1.48716e+07,-80.4583
1.49383e+07,-81.3726
1.5005e+07,-82.2228
1.50717e+07,-81.488
1.51384e+07,-81.8594
1.52051e+07,-81.3912
1.52718e+07,-82.0071
1.53384e+07,-82.5776
1.54051e+07,-81.4612
1.54718e+07,-65.6012
1.55385e+07,-65.228
1.56052e+07,-66.709
1.56719e+07,-81.112
1.57386e+07,-80.5209
1.58053e+07,-80.2551
1.5872e+07,-80.8856
1.59386e+07,-81.6725
1.60053e+07,-81.5893
1.6072e+07,-81.4438
1.61387e+07,-82.6258
1.62054e+07,-82.7706
1.62721e+07,-82.3609
1.63388e+07,-81.0806
1.64055e+07,-82.159
1.64722e+07,-82.5683
1.65388e+07,-81.4309
1.66055e+07,-80.919
1.66722e+07,-81.593
1.67389e+07,-82.3073
1.68056e+07,-82.2014
1.68723e+07,-82.4767
1.6939e+07,-83.1282
1.70057e+07,-81.6884
1.70724e+07,-81.9668
1.7139e+07,-82.4173
1.72057e+07,-81.9149
1.72724e+07,-82.6371
1.73391e+07,-81.9296
1.74058e+07,-82.6394
1.74725e+07,-82.5362
1.75392e+07,-81.3779
1.76059e+07,-82.5419
1.76726e+07,-83.028
1.77392e+07,-81.3436
1.78059e+07,-81.0485
1.78726e+07,-81.7338
1.79393e+07,-82.1399
1.8006e+07,-80.4378
1.80727e+07,-80.4399
1.81394e+07,-81.7877
1.82061e+07,-81.999
1.82728e+07,-81.1659
1.83394e+07,-80.95
1.84061e+07,-80.8059
1.84728e+07,-82.1387
1.85395e+07,-82.524
1.86062e+07,-81.666
1.86729e+07,-81.5036
1.87396e+07,-81.4578
1.88063e+07,-82.0712
1.8873e+07,-81.7598
1.89396e+07,-79.4909
1.90063e+07,-80.268
1.9073e+07,-80.9638
1.91397e+07,-82.8025
1.92064e+07,-81.2724
1.92731e+07,-81.091
1.93398e+07,-82.6063
1.94065e+07,-83.17
1.94732e+07,-80.5252
1.95398e+07,-82.8556
1.96065e+07,-82.1751
1.96732e+07,-82.5658
1.97399e+07,-80.9356
1.98066e+07,-82.8534
1.98733e+07,-82.496
1.994e+07,-81.6519
2.00067e+07,-82.0484
2.00734e+07,-81.8784
2.014e+07,-82.389
2.02067e+07,-81.2992
2.02734e+07,-81.9879
2.03401e+07,-81.7379
2.04068e+07,-83.1575
2.04735e+07,-80.8555
2.05402e+07,-82.9141
2.06069e+07,-81.3043
2.06736e+07,-82.136
2.07402e+07,-81.9739
2.08069e+07,-82.5179
2.08736e+07,-80.6105
2.09403e+07,-82.1302
2.1007e+07,-81.221
2.10737e+07,-80.6993
2.11404e+07,-80.6794
2.12071e+07,-82.2293
2.12738e+07,-82.7168
2.13404e+07,-81.48
2.14071e+07,-82.0998
2.14738e+07,-80.3196
2.15405e+07,-82.0694
2.16072e+07,-82.0752
2.16739e+07,-81.4346
2.17406e+07,-80.1442
2.18073e+07,-82.7188
2.1874e+07,-81.1485
2.19406e+07,-81.411
2.20073e+07,-81.1211
2.2074e+07,-82.523
2.21407e+07,-81.7396
2.22074e+07,-81.2774
2.22741e+07,-81.918
2.23408e+07,-81.3504
2.24075e+07,-81.8977
2.24742e+07,-80.6338
2.25408e+07,-82.471
2.26075e+07,-82.3256
2.26742e+07,-81.7596
2.27409e+07,-82.5749
2.28076e+07,-82.438
2.28743e+07,-82.3298
2.2941e+07,-81.7072
2.30077e+07,-80.2999
2.30744e+07,-82.8122
2.3141e+07,-81.9673
2.32077e+07,-81.8426
2.32744e+07,-79.9882
2.33411e+07,-81.892
2.34078e+07,-82.5481
2.34745e+07,-81.3786
2.35412e+07,-81.366
2.36079e+07,-81.1672
2.36746e+07,-81.6537
2.37412e+07,-81.3881
2.38079e+07,-81.4719
2.38746e+07,-81.9061
2.39413e+07,-81.8896
2.4008e+07,-80.4291
2.40747e+07,-80.5095
2.41414e+07,-78.3257
2.42081e+07,-77.0718
2.42748e+07,-81.7915
2.43414e+07,-82.213
2.44081e+07,-81.1948
2.44748e+07,-81.8814
2.45415e+07,-81.5014
2.46082e+07,-82.0664
2.46749e+07,-80.9892
2.47416e+07,-82.4028
2.48083e+07,-82.4191
2.4875e+07,-81.6641
2.49416e+07,-80.8275
2.50083e+07,-81.8098
2.5075e+07,-82.1764
2.51417e+07,-82.2984
2.52084e+07,-81.8713
2.52751e+07,-80.5799
2.53418e+07,-82.1116
2.54085e+07,-81.1854
2.54752e+07,-81.6368
2.55418e+07,-81.5439
2.56085e+07,-81.6108
2.56752e+07,-80.9597
2.57419e+07,-74.5317
2.58086e+07,-81.5935
2.58753e+07,-81.2666
2.5942e+07,-80.1514
2.60087e+07,-81.1504
2.60754e+07,-80.976
2.6142e+07,-79.7743
2.62087e+07,-81.9128
2.62754e+07,-81.6478
2.63421e+07,-81.1122
2.64088e+07,-80.0433
2.64755e+07,-78.67
2.65422e+07,-78.6539
2.66089e+07,-80.4802
2.66756e+07,-80.077
2.67422e+07,-79.3755
2.68089e+07,-80.9119
2.68756e+07,-80.394
2.69423e+07,-80.4527
2.7009e+07,-79.3183
2.70757e+07,-78.6841
2.71424e+07,-75.169
2.72091e+07,-71.3514
2.72758e+07,-70.5194
2.73424e+07,-69.9922
2.74091e+07,-72.9076
2.74758e+07,-78.092
2.75425e+07,-76.5125
2.76092e+07,-75.6691
2.76759e+07,-77.7883
2.77426e+07,-76.2683
2.78093e+07,-78.3802
2.7876e+07,-78.6722
2.79426e+07,-78.9402
2.80093e+07,-78.0335
2.8076e+07,-72.6673
2.81427e+07,-74.0646
2.82094e+07,-74.8142
2.82761e+07,-77.0683
2.83428e+07,-77.2119
2.84095e+07,-77.6962
2.84762e+07,-76.2631
2.85428e+07,-73.6084
2.86095e+07,-78.6038
2.86762e+07,-76.8597
2.87429e+07,-77.4118
2.88096e+07,-76.9612
2.88763e+07,-70.3743
2.8943e+07,-68.4177
2.90097e+07,-68.4633
2.90764e+07,-75.9972
2.9143e+07,-75.9465
2.92097e+07,-76.5192
2.92764e+07,-75.3892
2.93431e+07,-74.9332
2.94098e+07,-77.0576
2.94765e+07,-76.3258
2.95432e+07,-75.2784
2.96099e+07,-76.6072
2.96766e+07,-72.2182
2.97432e+07,-75.444
2.98099e+07,-74.8331
2.98766e+07,-75.5146
2.99433e+07,-76.3789
3.001e+07,-74.5339
3.00767e+07,-75.2793
3.01434e+07,-75.6218
3.02101e+07,-74.476
3.02768e+07,-72.8139
3.03434e+07,-72.9965
3.04101e+07,-73.2372
3.04768e+07,-65.9701
3.05435e+07,-64.3755
3.06102e+07,-67.2325
3.06769e+07,-71.8637
3.07436e+07,-70.6582
3.08103e+07,-71.5647
3.0877e+07,-70.9419
3.09436e+07,-70.0931
3.10103e+07,-71.7712
3.1077e+07,-70.2238
3.11437e+07,-68.9503
3.12104e+07,-70.3991
3.12771e+07,-60.4105
3.13438e+07,-58.7241
3.14105e+07,-60.8347
3.14772e+07,-68.4461
3.15438e+07,-69.3919
3.16105e+07,-69.2271
3.16772e+07,-68.7531
3.17439e+07,-68.4341
3.18106e+07,-68.9513
3.18773e+07,-64.8775
3.1944e+07,-65.9979
3.20107e+07,-67.9114
3.20774e+07,-61.7815
3.2144e+07,-57.5472
3.22107e+07,-57.9199
3.22774e+07,-66.6642
3.23441e+07,-66.1809
3.24108e+07,-65.9422
3.24775e+07,-64.9747
3.25442e+07,-65.0241
3.26109e+07,-63.5796
3.26776e+07,-65.3512
3.27442e+07,-66.0502
3.28109e+07,-64.1489
3.28776e+07,-58.3647
3.29443e+07,-59.4011
3.3011e+07,-60.9454
3.30777e+07,-66.308
3.31444e+07,-64.9826
3.32111e+07,-65.362
3.32778e+07,-56.508
3.33444e+07,-55.9001
3.34111e+07,-56.8705
3.34778e+07,-63.2627
3.35445e+07,-64.4311
3.36112e+07,-64.7971
3.36779e+07,-65.2822
3.37446e+07,-64.2537
3.38113e+07,-65.8328
3.3878e+07,-64.7423
3.39446e+07,-62.9185
3.40113e+07,-63.8889
3.4078e+07,-64.0834
3.41447e+07,-64.1447
3.42114e+07,-64.0261
3.42781e+07,-64.4843
3.43448e+07,-63.6794
3.44115e+07,-63.8843
3.44782e+07,-55.0516
3.45448e+07,-56.1985
3.46115e+07,-59.6398
3.46782e+07,-64.1459
3.47449e+07,-62.4334
3.48116e+07,-64.1856
3.48783e+07,-63.3738
3.4945e+07,-62.6697
3.50117e+07,-62.0133
3.50784e+07,-63.3758
3.5145e+07,-61.4323
3.52117e+07,-63.3745
3.52784e+07,-62.5609
3.53451e+07,-61.5231
3.54118e+07,-62.3463
3.54785e+07,-63.4179
3.55452e+07,-62.6184
3.56119e+07,-61.4615
3.56786e+07,-60.645
3.57452e+07,-61.3846
3.58119e+07,-61.7011
3.58786e+07,-60.0022
3.59453e+07,-55.7394
3.6012e+07,-59.9986
3.60787e+07,-60.2357
3.61454e+07,-59.3596
3.62121e+07,-58.1219
3.62788e+07,-59.3892
3.63454e+07,-59.3099
3.64121e+07,-59.0419
3.64788e+07,-57.3393
3.65455e+07,-58.4146
3.66122e+07,-59.7707
3.66789e+07,-60.1226
3.67456e+07,-61.0977
3.68123e+07,-60.5981
3.6879e+07,-60.1026
3.69456e+07,-60.4938
3.70123e+07,-60.7247
3.7079e+07,-60.6878
3.71457e+07,-61.7499
3.72124e+07,-62.2941
3.72791e+07,-61.0668
3.73458e+07,-61.3231
3.74125e+07,-57.4591
3.74792e+07,-59.0789
3.75458e+07,-58.8254
3.76125e+07,-58.7972
3.76792e+07,-57.8749
3.77459e+07,-60.6342
3.78126e+07,-59.8301
3.78793e+07,-57.5953
3.7946e+07,-59.1331
3.80127e+07,-59.7564
3.80794e+07,-58.8732
3.8146e+07,-59.7825
3.82127e+07,-59.5438
3.82794e+07,-58.3206
3.83461e+07,-59.3685
3.84128e+07,-59.8553
3.84795e+07,-59.5937
3.85462e+07,-58.32
3.86129e+07,-60.2222
3.86796e+07,-58.8716
3.87462e+07,-57.8346
3.88129e+07,-57.8162
3.88796e+07,-61.1331
3.89463e+07,-57.8567
3.9013e+07,-58.5248
3.90797e+07,-58.7349
3.91464e+07,-58.3133
3.92131e+07,-57.3821
3.92798e+07,-58.4345
3.93464e+07,-59.8108
3.94131e+07,-58.5081
3.94798e+07,-60.0668
3.95465e+07,-58.3031
3.96132e+07,-39.4811
3.96799e+07,-37.7692
3.97466e+07,-41.1483
3.98133e+07,-58.6639
3.988e+07,-57.5302
3.99466e+07,-59.4562
4.00133e+07,-60.3607
4.008e+07,-59.5925
4.01467e+07,-59.036
4.02134e+07,-59.1091
4.02801e+07,-60.5696
4.03468e+07,-58.8484
4.04135e+07,-58.7896
4.04802e+07,-59.553
4.05468e+07,-59.35
4.06135e+07,-58.9771
4.06802e+07,-58.2523
4.07469e+07,-57.1768
4.08136e+07,-59.1477
4.08803e+07,-57.9025
4.0947e+07,-46.8165
4.10137e+07,-44.3746
4.10804e+07,-55.5003
4.1147e+07,-56.8039
4.12137e+07,-57.6793
4.12804e+07,-57.2421
4.13471e+07,-57.9046
4.14138e+07,-58.7176
4.14805e+07,-59.0116
4.15472e+07,-57.0975
4.16139e+07,-58.3358
4.16806e+07,-57.3039
4.17472e+07,-57.7462
4.18139e+07,-57.7301
4.18806e+07,-59.084
4.19473e+07,-57.5005
4.2014e+07,-57.341
4.20807e+07,-57.6136
4.21474e+07,-57.0937
4.22141e+07,-57.0888
4.22808e+07,-57.2955
4.23474e+07,-57.4827
4.24141e+07,-57.2708
4.24808e+07,-56.4147
4.25475e+07,-57.4298
4.26142e+07,-58.4173
4.26809e+07,-57.0846
4.27476e+07,-56.4654
4.28143e+07,-57.2762
4.2881e+07,-57.4808
4.29476e+07,-58.2679
4.30143e+07,-56.2546
4.3081e+07,-56.9499
4.31477e+07,-56.5074
4.32144e+07,-56.6305
4.32811e+07,-57.9067
4.33478e+07,-57.2755
4.34145e+07,-56.6989
4.34812e+07,-57.5552
4.35478e+07,-57.463
4.36145e+07,-56.7382
4.36812e+07,-57.4906
4.37479e+07,-57.996
4.38146e+07,-58.2251
4.38813e+07,-58.1418
4.3948e+07,-57.306
4.40147e+07,-57.4124
4.40814e+07,-57.5304
4.4148e+07,-57.1211
4.42147e+07,-56.7864
4.42814e+07,-55.699
4.43481e+07,-57.2516
4.44148e+07,-56.5319
4.44815e+07,-56.4945
4.45482e+07,-57.3067
4.46149e+07,-58.2923
4.46816e+07,-56.7522
4.47482e+07,-57.2545
4.48149e+07,-57.0352
4.48816e+07,-56.9294
4.49483e+07,-56.1136
4.5015e+07,-56.6756
4.50817e+07,-56.6397
4.51484e+07,-55.7509
4.52151e+07,-54.5411
4.52818e+07,-56.8118
4.53484e+07,-56.8448
4.54151e+07,-57.2379
4.54818e+07,-52.2568
4.55485e+07,-51.7534
4.56152e+07,-55.351
4.56819e+07,-54.8197
4.57486e+07,-54.4254
4.58153e+07,-54.571
4.5882e+07,-56.1829
4.59486e+07,-54.0169
4.60153e+07,-54.4868
4.6082e+07,-54.9141
4.61487e+07,-55.0489
4.62154e+07,-56.0305
4.62821e+07,-57.3398
4.63488e+07,-57.6479
4.64155e+07,-57.9472
4.64822e+07,-57.5946
4.65488e+07,-57.9989
4.66155e+07,-58.6776
4.66822e+07,-58.4447
4.67489e+07,-59.8298
4.68156e+07,-59.8759
4.68823e+07,-58.9229
4.6949e+07,-59.9642
4.70157e+07,-60.8313
4.70824e+07,-59.5621
4.7149e+07,-59.7513
4.72157e+07,-59.3568
4.72824e+07,-59.609
4.73491e+07,-61.1798
4.74158e+07,-57.4658
4.74825e+07,-59.754
4.75492e+07,-60.2475
4.76159e+07,-60.3574
4.76826e+07,-59.9052
4.77492e+07,-60.1481
4.78159e+07,-60.9228
4.78826e+07,-60.692
4.79493e+07,-59.0885
4.8016e+07,-60.6388
4.80827e+07,-61.4719
4.81494e+07,-61.3284
4.82161e+07,-62.3092
4.82828e+07,-61.8119
4.83494e+07,-61.5271
4.84161e+07,-60.8213
4.84828e+07,-59.5929
4.85495e+07,-60.3241
4.86162e+07,-59.2638
4.86829e+07,-60.8413
4.87496e+07,-59.9687
4.88163e+07,-61.0152
4.8883e+07,-60.5223
4.89496e+07,-59.0787
4.90163e+07,-59.2042
4.9083e+07,-60.3699
4.91497e+07,-58.8627
4.92164e+07,-58.8462
4.92831e+07,-59.8423
4.93498e+07,-58.7263
4.94165e+07,-59.6586
4.94832e+07,-58.8806
4.95498e+07,-58.1847
4.96165e+07,-59.0264
4.96832e+07,-60.1318
4.97499e+07,-58.4639
4.98166e+07,-58.9198
4.98833e+07,-58.8279
4.995e+07,-59.0078
5.00167e+07,-57.5379
5.00834e+07,-57.8518
5.01501e+07,-55.5627
5.02167e+07,-58.0702
5.02834e+07,-57.2725
5.03501e+07,-58.1035
5.04168e+07,-56.9657
5.04835e+07,-56.7721
5.05502e+07,-58.2392
5.06169e+07,-56.7926
5.06836e+07,-56.6685
5.07503e+07,-57.3096
5.08169e+07,-57.193
5.08836e+07,-56.9743
5.09503e+07,-57.9059
5.1017e+07,-56.3265
5.10837e+07,-57.0286
5.11504e+07,-56.6962
5.12171e+07,-57.0823
5.12838e+07,-56.5645
5.13505e+07,-56.2453
5.14171e+07,-56.4748
5.14838e+07,-54.9343
5.15505e+07,-56.2283
5.16172e+07,-56.6777
5.16839e+07,-56.4062
5.17506e+07,-55.7343
5.18173e+07,-57.0212
5.1884e+07,-56.7156
5.19507e+07,-55.9975
5.20173e+07,-57.1976
5.2084e+07,-56.063
5.21507e+07,-56.5911
5.22174e+07,-56.7816
5.22841e+07,-56.8459
5.23508e+07,-56.7282
5.24175e+07,-56.6901
5.24842e+07,-57.4666
5.25509e+07,-57.5737
5.26175e+07,-57.6035
5.26842e+07,-56.4756
5.27509e+07,-56.8692
5.28176e+07,-58.4714
5.28843e+07,-58.5353
5.2951e+07,-55.7185
5.30177e+07,-57.5163
5.30844e+07,-57.7208
5.31511e+07,-55.0598
5.32177e+07,-57.3772
5.32844e+07,-56.9113
5.33511e+07,-57.8701
5.34178e+07,-56.2587
5.34845e+07,-57.0681
5.35512e+07,-58.0008
5.36179e+07,-57.7087
5.36846e+07,-56.5544
5.37513e+07,-56.5653
5.38179e+07,-55.2421
5.38846e+07,-58.4883
5.39513e+07,-58.0672
5.4018e+07,-59.0699
5.40847e+07,-58.3088
5.41514e+07,-58.4141
5.42181e+07,-60.6324
5.42848e+07,-57.2611
5.43515e+07,-58.4889
5.44181e+07,-57.9185
5.44848e+07,-58.8061
5.45515e+07,-57.536
5.46182e+07,-55.2556
5.46849e+07,-58.094
5.47516e+07,-59.0399
5.48183e+07,-58.5302
5.4885e+07,-58.9083
5.49517e+07,-58.271
5.50183e+07,-57.9755
5.5085e+07,-57.8613
5.51517e+07,-58.7188
5.52184e+07,-56.8647
5.52851e+07,-57.1952
5.53518e+07,-57.8179
5.54185e+07,-57.15
5.54852e+07,-56.8488
5.55519e+07,-57.458
5.56185e+07,-56.9107
5.56852e+07,-55.982
5.57519e+07,-55.2533
5.58186e+07,-53.1304
5.58853e+07,-55.0102
5.5952e+07,-55.7103
5.60187e+07,-53.4095
5.60854e+07,-54.3831
5.61521e+07,-51.4492
5.62187e+07,-50.869
5.62854e+07,-50.9195
5.63521e+07,-54.3261
5.64188e+07,-52.2935
5.64855e+07,-52.5286
5.65522e+07,-51.067
5.66189e+07,-50.4045
5.66856e+07,-51.4749
5.67523e+07,-51.4456
5.68189e+07,-51.5491
5.68856e+07,-50.5115
5.69523e+07,-51.9233
5.7019e+07,-50.2934
5.70857e+07,-50.4141
5.71524e+07,-48.3785
5.72191e+07,-49.7903
5.72858e+07,-50.2187
5.73525e+07,-48.403
5.74191e+07,-47.6592
5.74858e+07,-49.2869
5.75525e+07,-49.1007
5.76192e+07,-50.2444
5.76859e+07,-48.8708
5.77526e+07,-48.1394
5.78193e+07,-48.9886
5.7886e+07,-47.5032
5.79527e+07,-48.8516
5.80193e+07,-47.782
5.8086e+07,-47.8444
5.81527e+07,-48.8831
5.82194e+07,-48.1018
5.82861e+07,-47.7057
5.83528e+07,-48.3782
5.84195e+07,-47.66
5.84862e+07,-48.6916
5.85529e+07,-47.5749
5.86195e+07,-48.3074
5.86862e+07,-48.2556
5.87529e+07,-47.5959
5.88196e+07,-46.8389
5.88863e+07,-46.5963
5.8953e+07,-46.4608
5.90197e+07,-47.4442
5.90864e+07,-46.2267
5.91531e+07,-46.9028
5.92197e+07,-47.0831
5.92864e+07,-48.2086
5.93531e+07,-45.9995
5.94198e+07,-46.8836
5.94865e+07,-47.1535
5.95532e+07,-46.5865
5.96199e+07,-46.5215
5.96866e+07,-47.4684
5.97533e+07,-46.7637
5.98199e+07,-45.7654
5.98866e+07,-46.6841
5.99533e+07,-45.2495
6.002e+07,-45.7125
6.00867e+07,-44.3745
6.01534e+07,-45.9743
6.02201e+07,-44.911
6.02868e+07,-46.1989
6.03535e+07,-45.8703
6.04201e+07,-45.4972
6.04868e+07,-46.6242
6.05535e+07,-45.0778
6.06202e+07,-46.1753
6.06869e+07,-46.1113
6.07536e+07,-45.8229
6.08203e+07,-45.727
6.0887e+07,-46.0074
6.09537e+07,-45.0875
6.10203e+07,-44.4671
6.1087e+07,-44.9216
6.11537e+07,-45.6088
6.12204e+07,-46.1499
6.12871e+07,-46.442
6.13538e+07,-46.2619
6.14205e+07,-46.1525
6.14872e+07,-48.0089
6.15539e+07,-45.8401
6.16205e+07,-46.7103
6.16872e+07,-47.0447
6.17539e+07,-47.1575
6.18206e+07,-48.4965
6.18873e+07,-47.6812
6.1954e+07,-48.7378
6.20207e+07,-49.9447
6.20874e+07,-49.5431
6.21541e+07,-49.7422
6.22207e+07,-48.7321
6.22874e+07,-51.2637
6.23541e+07,-50.5115
6.24208e+07,-50.0651
6.24875e+07,-50.0037
6.25542e+07,-51.5329
6.26209e+07,-48.5027
6.26876e+07,-51.2679
6.27543e+07,-52.2472
6.28209e+07,-51.3258
6.28876e+07,-51.2537
6.29543e+07,-52.4036
6.3021e+07,-50.8587
6.30877e+07,-52.3307
6.31544e+07,-53.1988
6.32211e+07,-53.2893
6.32878e+07,-51.8122
6.33545e+07,-52.6675
6.34211e+07,-51.3721
6.34878e+07,-52.1821
6.35545e+07,-53.4959
6.36212e+07,-52.4323
6.36879e+07,-52.601
6.37546e+07,-53.3784
6.38213e+07,-44.6119
6.3888e+07,-42.1026
6.39547e+07,-53.0533
6.40213e+07,-53.542
6.4088e+07,-52.1761
6.41547e+07,-54.1904
6.42214e+07,-52.7686
6.42881e+07,-52.7149
6.43548e+07,-53.1724
6.44215e+07,-53.9624
6.44882e+07,-50.951
6.45549e+07,-53.2681
6.46215e+07,-52.689
6.46882e+07,-54.0287
6.47549e+07,-52.5627
6.48216e+07,-51.0659
6.48883e+07,-52.6551
6.4955e+07,-52.2998
6.50217e+07,-52.0672
6.50884e+07,-50.7769
6.51551e+07,-51.8531
6.52217e+07,-52.1144
6.52884e+07,-53.5134
6.53551e+07,-50.7521
6.54218e+07,-53.2685
6.54885e+07,-54.627
6.55552e+07,-52.0683
6.56219e+07,-52.935
6.56886e+07,-53.7177
6.57553e+07,-53.6088
6.58219e+07,-54.0116
6.58886e+07,-53.9075
6.59553e+07,-53.0454
6.6022e+07,-53.505
6.60887e+07,-50.8656
6.61554e+07,-48.6727
6.62221e+07,-48.1534
6.62888e+07,-40.5518
6.63555e+07,-45.3792
6.64221e+07,-45.1438
6.64888e+07,-42.6403
6.65555e+07,-40.4464
6.66222e+07,-42.5123
6.66889e+07,-43.7737
6.67556e+07,-42.8568
6.68223e+07,-42.5319
6.6889e+07,-44.0115
6.69557e+07,-44.3243
6.70223e+07,-44.9047
6.7089e+07,-43.5027
6.71557e+07,-40.5884
6.72224e+07,-39.4105
6.72891e+07,-38.2535
6.73558e+07,-39.6807
6.74225e+07,-43.0459
6.74892e+07,-40.7191
6.75559e+07,-41.1859
6.76225e+07,-42.6613
6.76892e+07,-43.7631
6.77559e+07,-42.0554
6.78226e+07,-42.1508
6.78893e+07,-38.4582
6.7956e+07,-38.3383
6.80227e+07,-41.365
6.80894e+07,-42.5441
6.81561e+07,-38.8032
6.82227e+07,-42.4078
6.82894e+07,-43.7323
6.83561e+07,-42.2781
6.84228e+07,-39.9815
6.84895e+07,-40.5047
6.85562e+07,-40.7286
6.86229e+07,-42.4864
6.86896e+07,-42.1733
6.87563e+07,-38.1984
6.88229e+07,-41.0505
6.88896e+07,-45.2383
6.89563e+07,-42.7639
6.9023e+07,-47.2919
6.90897e+07,-44.2405
6.91564e+07,-43.3048
6.92231e+07,-46.0405
6.92898e+07,-46.4294
6.93565e+07,-46.5034
6.94231e+07,-42.5481
6.94898e+07,-45.7286
6.95565e+07,-44.1195
6.96232e+07,-24.9141
6.96899e+07,-45.4457
6.97566e+07,-46.5816
6.98233e+07,-46.1661
6.989e+07,-46.1389
6.99567e+07,-44.1531
7.00233e+07,-43.3177
7.009e+07,-43.0134
7.01567e+07,-45.1751
7.02234e+07,-43.2056
7.02901e+07,-44.7521
7.03568e+07,-45.9233
7.04235e+07,-46.1365
7.04902e+07,-46.735
7.05569e+07,-46.1278
7.06235e+07,-46.6078
7.06902e+07,-38.9837
7.07569e+07,-44.3554
7.08236e+07,-47.3588
7.08903e+07,-47.4658
7.0957e+07,-31.3621
7.10237e+07,-46.4347
7.10904e+07,-47.0895
7.11571e+07,-47.2682
7.12237e+07,-46.7434
7.12904e+07,-46.7598
7.13571e+07,-45.9235
7.14238e+07,-47.0206
7.14905e+07,-46.6257
7.15572e+07,-45.1625
7.16239e+07,-46.5701
7.16906e+07,-44.9016
7.17573e+07,-45.8127
7.18239e+07,-44.9439
7.18906e+07,-46.1105
7.19573e+07,-47.5423
7.2024e+07,-47.5365
7.20907e+07,-47.3742
7.21574e+07,-48.0188
7.22241e+07,-47.1552
7.22908e+07,-46.0531
7.23575e+07,-45.924
7.24241e+07,-46.9892
7.24908e+07,-47.0446
7.25575e+07,-47.44
7.26242e+07,-47.47
7.26909e+07,-46.9089
7.27576e+07,-46.9386
7.28243e+07,-46.9687
7.2891e+07,-11.4263
7.29577e+07,-7.66297
7.30243e+07,-47.3347
7.3091e+07,-46.2091
7.31577e+07,-46.3401
7.32244e+07,-46.6995
7.32911e+07,-46.9324
7.33578e+07,-46.9137
7.34245e+07,-47.1831
7.34912e+07,-41.7772
7.35579e+07,-42.9207
7.36245e+07,-45.7462
7.36912e+07,-36.3207
7.37579e+07,-46.7307
7.38246e+07,-47.9936
7.38913e+07,-47.8959
7.3958e+07,-47.3059
7.40247e+07,-47.6185
7.40914e+07,-47.3706
7.41581e+07,-48.0049
7.42247e+07,-48.6033
7.42914e+07,-45.8274
7.43581e+07,-45.408
7.44248e+07,-47.0456
7.44915e+07,-47.4202
7.45582e+07,-47.2928
7.46249e+07,-46.3967
7.46916e+07,-47.1999
7.47583e+07,-47.1019
7.48249e+07,-44.9623
7.48916e+07,-46.3158
7.49583e+07,-45.8573
7.5025e+07,-47.6926
7.50917e+07,-45.15
7.51584e+07,-42.4225
7.52251e+07,-41.5126
7.52918e+07,-38.0536
7.53585e+07,-37.6198
7.54251e+07,-40.9227
7.54918e+07,-40.0559
7.55585e+07,-38.9883
7.56252e+07,-34.5311
7.56919e+07,-42.6043
7.57586e+07,-43.6592
7.58253e+07,-44.7579
7.5892e+07,-44.0952
7.59587e+07,-40.9156
7.60253e+07,-40.7086
7.6092e+07,-42.0143
7.61587e+07,-41.8251
7.62254e+07,-41.8133
7.62921e+07,-46.4918
7.63588e+07,-41.2135
7.64255e+07,-47.2529
7.64922e+07,-32.2493
7.65589e+07,-48.9921
7.66255e+07,-49.3444
7.66922e+07,-49.7613
7.67589e+07,-47.1835
7.68256e+07,-49.6718
7.68923e+07,-49.7271
7.6959e+07,-27.1465
7.70257e+07,-46.3731
7.70924e+07,-46.703
7.71591e+07,-46.9635
7.72257e+07,-50.2988
7.72924e+07,-42.1801
7.73591e+07,-51.2719
7.74258e+07,-51.2926
7.74925e+07,-48.6858
7.75592e+07,-47.3292
7.76259e+07,-49.3186
7.76926e+07,-42.7017
7.77593e+07,-33.9465
7.78259e+07,-51.1985
7.78926e+07,-42.6139
7.79593e+07,-48.1348
7.8026e+07,-50.4674
7.80927e+07,-52.4424
7.81594e+07,-52.4575
7.82261e+07,-52.1437
7.82928e+07,-51.6122
7.83595e+07,-52.2894
7.84261e+07,-44.8693
7.84928e+07,-45.0049
7.85595e+07,-43.6672
7.86262e+07,-41.7555
7.86929e+07,-48.6894
7.87596e+07,-42.2782
7.88263e+07,-48.5622
7.8893e+07,-47.6779
7.89597e+07,-32.9924
7.90263e+07,-42.553
7.9093e+07,-44.7104
7.91597e+07,-48.6093
7.92264e+07,-43.6898
7.92931e+07,-44.8195
7.93598e+07,-51.8714
7.94265e+07,-52.2299
7.94932e+07,-51.2335
7.95599e+07,-51.9555
7.96265e+07,-50.8512
7.96932e+07,-51.3646
7.97599e+07,-49.4
7.98266e+07,-48.2307
7.98933e+07,-48.0693
7.996e+07,-48.6257
8.00267e+07,-49.1365
8.00934e+07,-51.9068
8.01601e+07,-51.2082
8.02267e+07,-53.5816
8.02934e+07,-51.4604
8.03601e+07,-51.3526
8.04268e+07,-52.7835
8.04935e+07,-53.07
8.05602e+07,-53.6698
8.06269e+07,-52.4157
8.06936e+07,-53.1789
8.07603e+07,-50.4829
8.08269e+07,-52.6928
8.08936e+07,-53.1901
8.09603e+07,-54.1998
8.1027e+07,-54.0983
8.10937e+07,-53.9181
8.11604e+07,-55.0802
8.12271e+07,-54.4197
8.12938e+07,-54.4147
8.13605e+07,-54.3145
8.14271e+07,-54.2796
8.14938e+07,-51.6756
8.15605e+07,-52.8474
8.16272e+07,-54.892
8.16939e+07,-54.353
8.17606e+07,-54.7516
8.18273e+07,-55.8778
8.1894e+07,-54.067
8.19607e+07,-47.5167
8.20273e+07,-40.8269
8.2094e+07,-55.6844
8.21607e+07,-55.6286
8.22274e+07,-54.3923
8.22941e+07,-53.7142
8.23608e+07,-54.2235
8.24275e+07,-55.3904
8.24942e+07,-52.8454
8.25609e+07,-53.6688
8.26275e+07,-55.6271
8.26942e+07,-55.7896
8.27609e+07,-54.1935
8.28276e+07,-51.6243
8.28943e+07,-50.9672
8.2961e+07,-49.8649
8.30277e+07,-52.5397
8.30944e+07,-50.2496
8.31611e+07,-45.1898
8.32277e+07,-22.0907
8.32944e+07,-40.1474
8.33611e+07,-49.6571
8.34278e+07,-50.7847
8.34945e+07,-55.6436
8.35612e+07,-54.9062
8.36279e+07,-56.8026
8.36946e+07,-55.7339
8.37613e+07,-52.4714
8.38279e+07,-56.888
8.38946e+07,-55.8449
8.39613e+07,-52.0416
8.4028e+07,-52.4239
8.40947e+07,-54.4274
8.41614e+07,-51.5771
8.42281e+07,-56.1556
8.42948e+07,-54.4014
8.43615e+07,-55.5699
8.44281e+07,-55.7971
8.44948e+07,-58.0368
8.45615e+07,-57.6542
8.46282e+07,-57.8299
8.46949e+07,-57.2475
8.47616e+07,-56.587
8.48283e+07,-57.1453
8.4895e+07,-57.655
8.49617e+07,-57.92
8.50283e+07,-58.9524
8.5095e+07,-58.6626
8.51617e+07,-58.5667
8.52284e+07,-59.5591
8.52951e+07,-56.6951
8.53618e+07,-57.0983
8.54285e+07,-58.5668
8.54952e+07,-59.3407
8.55619e+07,-60.5027
8.56285e+07,-61.7942
8.56952e+07,-60.6199
8.57619e+07,-61.6505
8.58286e+07,-61.6074
8.58953e+07,-61.5814
8.5962e+07,-62.265
8.60287e+07,-64.1031
8.60954e+07,-61.6332
8.61621e+07,-63.5982
8.62287e+07,-65.3182
8.62954e+07,-66.7475
8.63621e+07,-65.8471
8.64288e+07,-67.537
8.64955e+07,-66.8172
8.65622e+07,-67.8456
8.66289e+07,-69.6909
8.66956e+07,-71.0087
8.67623e+07,-70.1296
8.68289e+07,-64.5188
8.68956e+07,-69.0735
8.69623e+07,-72.5121
8.7029e+07,-73.3586
8.70957e+07,-72.9865
8.71624e+07,-73.2457
8.72291e+07,-74.3749
8.72958e+07,-74.5905
8.73625e+07,-74.9793
8.74291e+07,-75.3799
8.74958e+07,-76.5967
8.75625e+07,-76.6368
8.76292e+07,-54.1777
8.76959e+07,-43.2461
8.77626e+07,-45.2644
8.78293e+07,-51.3814
8.7896e+07,-76.6546
8.79627e+07,-77.0343
8.80293e+07,-61.3817
8.8096e+07,-60.6901
8.81627e+07,-61.2461
8.82294e+07,-76.3591
8.82961e+07,-73.9992
8.83628e+07,-49.1999
8.84295e+07,-19.216
8.84962e+07,-19.3046
8.85629e+07,-20.2908
8.86295e+07,-56.6193
8.86962e+07,-73.5031
8.87629e+07,-77.3956
8.88296e+07,-71.2782
8.88963e+07,-68.6245
8.8963e+07,-76.2876
8.90297e+07,-76.6627
8.90964e+07,-74.8435
8.91631e+07,-79.348
8.92297e+07,-76.1902
8.92964e+07,-72.6125
8.93631e+07,-75.9707
8.94298e+07,-70.2813
8.94965e+07,-70.0916
8.95632e+07,-70.4865
8.96299e+07,-80.7154
8.96966e+07,-79.8618
8.97633e+07,-79.8212
8.98299e+07,-80.7169
8.98966e+07,-80.5435
8.99633e+07,-81.3448
9.003e+07,-74.1639
9.00967e+07,-76.7874
9.01634e+07,-81.4747
9.02301e+07,-81.5456
9.02968e+07,-81.2757
9.03635e+07,-81.1157
9.04301e+07,-73.1974
9.04968e+07,-72.7466
9.05635e+07,-74.7606
9.06302e+07,-81.439
9.06969e+07,-79.4049
9.07636e+07,-79.8646
9.08303e+07,-77.8718
9.0897e+07,-78.6876
9.09637e+07,-78.1838
9.10303e+07,-79.7691
9.1097e+07,-79.9864
9.11637e+07,-80.0626
9.12304e+07,-80.58
9.12971e+07,-77.8961
9.13638e+07,-78.152
9.14305e+07,-80.5407
9.14972e+07,-66.8947
9.15639e+07,-68.9653
9.16305e+07,-79.7593
9.16972e+07,-80.5882
9.17639e+07,-80.7976
9.18306e+07,-79.4449
9.18973e+07,-79.4367
9.1964e+07,-79.7382
9.20307e+07,-78.5142
9.20974e+07,-78.8181
9.21641e+07,-78.2906
9.22307e+07,-71.0496
9.22974e+07,-71.5908
9.23641e+07,-72.521
9.24308e+07,-80.4178
9.24975e+07,-79.1875
9.25642e+07,-81.7591
9.26309e+07,-80.8391
9.26976e+07,-79.1513
9.27643e+07,-77.9129
9.28309e+07,-77.4665
9.28976e+07,-79.819
9.29643e+07,-80.3424
9.3031e+07,-81.9689
9.30977e+07,-81.573
9.31644e+07,-81.3048
9.32311e+07,-80.8707
9.32978e+07,-81.3452
9.33645e+07,-80.8215
9.34311e+07,-80.2008
9.34978e+07,-79.3204
9.35645e+07,-72.7567
9.36312e+07,-80.403
9.36979e+07,-81.0875
9.37646e+07,-80.7318
9.38313e+07,-79.6713
9.3898e+07,-78.8069
9.39647e+07,-80.0223
9.40313e+07,-81.0603
9.4098e+07,-79.9666
9.41647e+07,-80.4565
9.42314e+07,-81.3702
9.42981e+07,-81.0799
9.43648e+07,-82.2304
9.44315e+07,-82.4086
9.44982e+07,-80.8763
9.45649e+07,-81.2689
9.46315e+07,-80.6601
9.46982e+07,-81.1829
9.47649e+07,-81.123
9.48316e+07,-81.56
9.48983e+07,-81.7549
9.4965e+07,-82.0231
9.50317e+07,-81.5683
9.50984e+07,-80.6212
9.51651e+07,-79.7699
9.52317e+07,-81.5472
9.52984e+07,-80.9371
9.53651e+07,-81.9616
9.54318e+07,-81.6477
9.54985e+07,-82.4331
9.55652e+07,-80.1903
9.56319e+07,-82.6374
9.56986e+07,-82.6036
9.57653e+07,-80.4387
9.58319e+07,-82.1489
9.58986e+07,-81.9816
9.59653e+07,-81.7368
9.6032e+07,-83.1267
9.60987e+07,-82.6339
9.61654e+07,-82.9662
9.62321e+07,-80.1518
9.62988e+07,-80.2663
9.63655e+07,-82.075
9.64321e+07,-82.2184
9.64988e+07,-82.2038
9.65655e+07,-82.07
9.66322e+07,-82.8897
9.66989e+07,-82.5776
9.67656e+07,-82.4453
9.68323e+07,-81.4246
9.6899e+07,-81.5838
9.69657e+07,-81.9599
9.70323e+07,-76.9758
9.7099e+07,-76.1822
9.71657e+07,-73.8632
9.72324e+07,-82.1279
9.72991e+07,-82.2722
9.73658e+07,-82.2646
9.74325e+07,-82.4113
9.74992e+07,-81.9799
9.75659e+07,-81.5133
9.76325e+07,-82.1952
9.76992e+07,-82.5333
9.77659e+07,-81.3853
9.78326e+07,-80.8785
9.78993e+07,-80.3481
9.7966e+07,-83.4771
9.80327e+07,-82.3024
9.80994e+07,-81.3828
9.81661e+07,-81.4113
9.82327e+07,-81.4335
9.82994e+07,-82.5177
9.83661e+07,-83.3521
9.84328e+07,-82.2495
9.84995e+07,-81.8289
9.85662e+07,-81.4019
9.86329e+07,-82.3122
9.86996e+07,-77.7679
9.87663e+07,-72.883
9.88329e+07,-68.719
9.88996e+07,-79.7686
9.89663e+07,-82.6198
9.9033e+07,-83.026
9.90997e+07,-82.5044
9.91664e+07,-81.8171
9.92331e+07,-82.0988
9.92998e+07,-82.6135
9.93665e+07,-82.7364
9.94331e+07,-82.052
9.94998e+07,-82.3849
9.95665e+07,-82.6824
9.96332e+07,-81.077
9.96999e+07,-82.3257
9.97666e+07,-81.5262
9.98333e+07,-83.2407
9.99e+07,-82.8004
9.99667e+07,-82.6271
1.00033e+08,-82.6303
1.001e+08,-81.3646
1.00167e+08,-82.6256
1.00233e+08,-82.1053
1.003e+08,-81.5484
1.00367e+08,-81.9377
1.00433e+08,-81.9132
1.005e+08,-83.0266
1.00567e+08,-82.4386
1.00634e+08,-81.9357
1.007e+08,-81.7785
1.00767e+08,-82.775
1.00834e+08,-80.9721
1.009e+08,-81.6964
1.00967e+08,-81.8205
1.01034e+08,-83.0578
1.011e+08,-82.391
1.01167e+08,-80.945
1.01234e+08,-80.4728
1.013e+08,-82.5652
1.01367e+08,-83.1339
1.01434e+08,-82.8843
1.01501e+08,-81.9018
1.01567e+08,-81.8296
1.01634e+08,-82.8674
1.01701e+08,-81.8184
1.01767e+08,-81.6865
1.01834e+08,-79.4159
1.01901e+08,-76.7952
1.01967e+08,-76.2041
1.02034e+08,-82.6938
1.02101e+08,-82.8525
1.02167e+08,-82.2036
1.02234e+08,-82.2708
1.02301e+08,-80.8146
1.02367e+08,-82.4652
1.02434e+08,-82.1028
1.02501e+08,-82.1976
1.02568e+08,-82.4017
1.02634e+08,-78.9365
1.02701e+08,-80.1956
1.02768e+08,-81.8615
1.02834e+08,-83.2261
1.02901e+08,-82.4612
1.02968e+08,-81.3591
1.03034e+08,-81.7813
1.03101e+08,-82.6558
1.03168e+08,-83.3605
1.03234e+08,-82.6735
1.03301e+08,-79.6848
1.03368e+08,-81.1648
1.03434e+08,-65.952
1.03501e+08,-65.4121
1.03568e+08,-69.387
1.03635e+08,-82.246
1.03701e+08,-82.217
1.03768e+08,-82.5355
1.03835e+08,-82.2875
1.03901e+08,-81.0543
1.03968e+08,-72.624
1.04035e+08,-71.8269
1.04101e+08,-72.007
1.04168e+08,-70.677
1.04235e+08,-58.6136
1.04301e+08,-56.5998
1.04368e+08,-58.4541
1.04435e+08,-72.1743
1.04502e+08,-71.5761
1.04568e+08,-82.2497
1.04635e+08,-79.8792
1.04702e+08,-68.6486
1.04768e+08,-76.2115
1.04835e+08,-81.9455
1.04902e+08,-74.9811
1.04968e+08,-71.5257
1.05035e+08,-51.2171
1.05102e+08,-48.9294
1.05168e+08,-49.3294
1.05235e+08,-74.0134
1.05302e+08,-80.6689
1.05368e+08,-82.9279
1.05435e+08,-81.5658
1.05502e+08,-75.2122
1.05569e+08,-75.0821
1.05635e+08,-82.1598
1.05702e+08,-66.461
1.05769e+08,-65.9827
1.05835e+08,-54.4316
1.05902e+08,-51.6075
1.05969e+08,-52.8292
1.06035e+08,-71.77
1.06102e+08,-59.5281
1.06169e+08,-60.9582
1.06235e+08,-48.8417
1.06302e+08,-46.4884
1.06369e+08,-47.5518
1.06435e+08,-61.8942
1.06502e+08,-61.536
1.06569e+08,-79.4423
1.06636e+08,-72.7108
1.06702e+08,-73.2997
1.06769e+08,-74.8288
1.06836e+08,-80.5654
1.06902e+08,-82.2788
1.06969e+08,-82.0827
1.07036e+08,-70.1161
1.07102e+08,-67.9111
1.07169e+08,-68.8242
1.07236e+08,-81.0043
1.07302e+08,-65.4901
1.07369e+08,-64.8923
1.07436e+08,-44.0968
1.07503e+08,-44.8062
1.07569e+08,-48.8435
1.07636e+08,-67.9644
1.07703e+08,-74.8004
1.07769e+08,-76.2841
1.07836e+08,-58.393
1.07903e+08,-59.2504
1.07969e+08,-58.7145
1.08036e+08,-73.1
1.08103e+08,-72.7465
1.08169e+08,-81.291
1.08236e+08,-81.6112
1.08303e+08,-80.3099
1.08369e+08,-81.3088
1.08436e+08,-81.6163
1.08503e+08,-81.3014
1.0857e+08,-81.4175
1.08636e+08,-81.141
1.08703e+08,-79.7835
1.0877e+08,-80.842
1.08836e+08,-80.6573
1.08903e+08,-80.2596
1.0897e+08,-80.3596
1.09036e+08,-80.4025
1.09103e+08,-80.95
1.0917e+08,-80.0267
1.09236e+08,-81.0142
1.09303e+08,-80.9331
1.0937e+08,-80.6712
1.09436e+08,-80.1789
1.09503e+08,-80.3038
1.0957e+08,-80.8635
1.09637e+08,-80.6274
1.09703e+08,-80.2365
1.0977e+08,-80.8467
1.09837e+08,-80.6288
1.09903e+08,-80.1952
1.0997e+08,-80.3204
1.10037e+08,-79.9647
1.10103e+08,-80.7378
1.1017e+08,-80.6652
1.10237e+08,-80.3993
1.10303e+08,-81.3136
1.1037e+08,-78.9395
1.10437e+08,-78.9734
1.10504e+08,-78.2315
1.1057e+08,-76.5978
1.10637e+08,-73.1382
1.10704e+08,-78.321
1.1077e+08,-79.7951
1.10837e+08,-79.4284
1.10904e+08,-78.9921
1.1097e+08,-79.3782
1.11037e+08,-79.1734
1.11104e+08,-77.7023
1.1117e+08,-78.4628
1.11237e+08,-78.5817
1.11304e+08,-78.6665
1.1137e+08,-78.316
1.11437e+08,-77.9505
1.11504e+08,-78.5585
1.11571e+08,-75.9297
1.11637e+08,-77.7581
1.11704e+08,-77.7469
1.11771e+08,-76.7936
1.11837e+08,-77.086
1.11904e+08,-77.5191
1.11971e+08,-77.4293
1.12037e+08,-76.7361
1.12104e+08,-77.3645
1.12171e+08,-77.1173
1.12237e+08,-75.9875
1.12304e+08,-76.8881
1.12371e+08,-76.1365
1.12437e+08,-76.7886
1.12504e+08,-77.201
1.12571e+08,-75.8529
1.12638e+08,-75.9112
1.12704e+08,-76.0137
1.12771e+08,-76.3298
1.12838e+08,-74.8474
1.12904e+08,-75.6342
1.12971e+08,-75.3768
1.13038e+08,-75.5245
1.13104e+08,-75.28
1.13171e+08,-74.2041
1.13238e+08,-75.4783
1.13304e+08,-75.2383
1.13371e+08,-76.2077
1.13438e+08,-75.6689
1.13505e+08,-76.0606
1.13571e+08,-74.9641
1.13638e+08,-74.9232
1.13705e+08,-76.1622
1.13771e+08,-75.3627
1.13838e+08,-75.5685
1.13905e+08,-75.4075
1.13971e+08,-75.4382
1.14038e+08,-76.0125
1.14105e+08,-75.6876
1.14171e+08,-76.2975
1.14238e+08,-75.2008
1.14305e+08,-76.0882
1.14371e+08,-76.5448
1.14438e+08,-76.8993
1.14505e+08,-77.1177
1.14572e+08,-76.1628
1.14638e+08,-77.1088
1.14705e+08,-77.4751
1.14772e+08,-77.1418
1.14838e+08,-77.0278
1.14905e+08,-76.9485
1.14972e+08,-77.4877
1.15038e+08,-76.666
1.15105e+08,-76.6088
1.15172e+08,-77.4053
1.15238e+08,-76.5178
1.15305e+08,-77.2102
1.15372e+08,-76.8923
1.15438e+08,-76.4475
1.15505e+08,-76.8796
1.15572e+08,-77.5166
1.15639e+08,-76.5916
1.15705e+08,-76.7372
1.15772e+08,-67.7142
1.15839e+08,-69.0086
1.15905e+08,-75.2043
1.15972e+08,-74.2145
1.16039e+08,-73.9767
1.16105e+08,-74.0869
1.16172e+08,-75.2038
1.16239e+08,-75.5221
1.16305e+08,-77.8332
1.16372e+08,-76.9258
1.16439e+08,-76.9547
1.16506e+08,-75.9887
1.16572e+08,-76.1514
1.16639e+08,-75.0824
1.16706e+08,-74.826
1.16772e+08,-76.0201
1.16839e+08,-73.6667
1.16906e+08,-75.2644
1.16972e+08,-72.3568
1.17039e+08,-70.3137
1.17106e+08,-72.0377
1.17172e+08,-71.7984
1.17239e+08,-70.998
1.17306e+08,-72.109
1.17372e+08,-73.5877
1.17439e+08,-72.626
1.17506e+08,-72.1391
1.17573e+08,-72.4465
1.17639e+08,-71.9637
1.17706e+08,-71.2181
1.17773e+08,-71.3879
1.17839e+08,-71.1806
1.17906e+08,-70.9782
1.17973e+08,-70.3525
1.18039e+08,-69.2888
1.18106e+08,-70.7996
1.18173e+08,-70.9436
1.18239e+08,-70.4989
1.18306e+08,-70.0651
1.18373e+08,-70.6803
1.18439e+08,-69.3208
1.18506e+08,-69.1737
1.18573e+08,-69.4184
1.1864e+08,-70.1349
1.18706e+08,-70.4469
1.18773e+08,-68.9489
1.1884e+08,-69.0532
1.18906e+08,-70.2832
1.18973e+08,-70.405
1.1904e+08,-70.056
1.19106e+08,-70.0271
1.19173e+08,-70.8988
1.1924e+08,-69.8889
1.19306e+08,-70.6001
1.19373e+08,-68.5428
1.1944e+08,-70.5981
1.19507e+08,-70.7572
1.19573e+08,-71.1534
1.1964e+08,-71.0515
1.19707e+08,-70.9924
1.19773e+08,-71.7334
1.1984e+08,-71.811
1.19907e+08,-70.7071
1.19973e+08,-70.7431
1.2004e+08,-71.1742
1.20107e+08,-71.8341
1.20173e+08,-72.1882
1.2024e+08,-72.2505
1.20307e+08,-72.3422
1.20373e+08,-72.7266
1.2044e+08,-72.134
1.20507e+08,-72.4796
1.20574e+08,-72.5548
1.2064e+08,-72.5531
1.20707e+08,-73.2046
1.20774e+08,-73.2105
1.2084e+08,-73.2203
1.20907e+08,-73.9206
1.20974e+08,-73.368
1.2104e+08,-74.9033
1.21107e+08,-74.2477
1.21174e+08,-75.2065
1.2124e+08,-75.2642
1.21307e+08,-75.8808
1.21374e+08,-76.4866
1.2144e+08,-76.6084
1.21507e+08,-77.8616
1.21574e+08,-78.8651
1.21641e+08,-76.9925
1.21707e+08,-80.7386
1.21774e+08,-79.3073
1.21841e+08,-80.5655
1.21907e+08,-79.5343
1.21974e+08,-79.9054
1.22041e+08,-77.8598
1.22107e+08,-77.3904
1.22174e+08,-76.9135
1.22241e+08,-75.8044
1.22307e+08,-74.8922
1.22374e+08,-73.9012
1.22441e+08,-73.5964
1.22508e+08,-72.1218
1.22574e+08,-71.7102
1.22641e+08,-70.4901
1.22708e+08,-70.4345
1.22774e+08,-69.9324
1.22841e+08,-70.0488
1.22908e+08,-68.6109
1.22974e+08,-68.9173
1.23041e+08,-69.621
1.23108e+08,-69.033
1.23174e+08,-68.167
1.23241e+08,-68.4445
1.23308e+08,-68.2337
1.23374e+08,-68.3118
1.23441e+08,-67.8145
1.23508e+08,-67.2997
1.23575e+08,-68.3454
1.23641e+08,-67.966
1.23708e+08,-68.1558
1.23775e+08,-68.3968
1.23841e+08,-67.8349
1.23908e+08,-68.4121
1.23975e+08,-68.4836
1.24041e+08,-69.0633
1.24108e+08,-68.3612
1.24175e+08,-69.421
1.24241e+08,-70.0659
1.24308e+08,-69.5438
1.24375e+08,-70.4247
1.24441e+08,-69.869
1.24508e+08,-69.5196
1.24575e+08,-69.7749
1.24642e+08,-70.1258
1.24708e+08,-71.2266
1.24775e+08,-70.6064
1.24842e+08,-71.5603
1.24908e+08,-71.2939
1.24975e+08,-71.6781
1.25042e+08,-71.3945
1.25108e+08,-71.3576
1.25175e+08,-72.2352
1.25242e+08,-72.2496
1.25308e+08,-72.9501
1.25375e+08,-71.9332
1.25442e+08,-72.2389
1.25509e+08,-72.7038
1.25575e+08,-54.3719
1.25642e+08,-53.9555
1.25709e+08,-73.0893
1.25775e+08,-73.7721
1.25842e+08,-73.1456
1.25909e+08,-73.6552
1.25975e+08,-74.3876
1.26042e+08,-74.6307
1.26109e+08,-74.7861
1.26175e+08,-74.2719
1.26242e+08,-74.1487
1.26309e+08,-69.2625
1.26375e+08,-74.2516
1.26442e+08,-76.0272
1.26509e+08,-75.0542
1.26576e+08,-74.7242
1.26642e+08,-75.8146
1.26709e+08,-76.3517
1.26776e+08,-75.8781
1.26842e+08,-75.5715
1.26909e+08,-76.0451
1.26976e+08,-77.6514
1.27042e+08,-77.0235
1.27109e+08,-77.9452
1.27176e+08,-78.3448
1.27242e+08,-77.4205
1.27309e+08,-80.3938
1.27376e+08,-79.1113
1.27442e+08,-81.3739
1.27509e+08,-80.6221
1.27576e+08,-80.7895
1.27643e+08,-81.8538
1.27709e+08,-81.6296
1.27776e+08,-81.773
1.27843e+08,-79.3422
1.27909e+08,-80.5829
1.27976e+08,-80.7619
1.28043e+08,-80.6362
1.28109e+08,-79.369
1.28176e+08,-78.7958
1.28243e+08,-77.6741
1.28309e+08,-79.1349
1.28376e+08,-77.738
1.28443e+08,-77.557
1.2851e+08,-77.8926
1.28576e+08,-77.1936
1.28643e+08,-76.2324
1.2871e+08,-77.2294
1.28776e+08,-76.065
1.28843e+08,-75.8521
1.2891e+08,-77.0615
1.28976e+08,-76.4594
1.29043e+08,-74.868
1.2911e+08,-76.075
1.29176e+08,-76.0031
1.29243e+08,-76.1497
1.2931e+08,-75.5327
1.29376e+08,-74.9424
1.29443e+08,-51.12
1.2951e+08,-41.1041
1.29577e+08,-76.1309
1.29643e+08,-75.0881
1.2971e+08,-76.1444
1.29777e+08,-75.6737
1.29843e+08,-76.8716
1.2991e+08,-76.3091
1.29977e+08,-76.9835
1.30043e+08,-76.9909
1.3011e+08,-76.3929
1.30177e+08,-77.4741
1.30243e+08,-77.7458
1.3031e+08,-77.1562
1.30377e+08,-77.0284
1.30443e+08,-79.1214
1.3051e+08,-78.5938
1.30577e+08,-78.7802
1.30644e+08,-78.6797
1.3071e+08,-79.9879
1.30777e+08,-79.2733
1.30844e+08,-79.8221
1.3091e+08,-80.1313
1.30977e+08,-80.3016
1.31044e+08,-80.5262
1.3111e+08,-80.0613
1.31177e+08,-80.2244
1.31244e+08,-79.8496
1.3131e+08,-79.1609
1.31377e+08,-81.2558
1.31444e+08,-79.8148
1.31511e+08,-79.4967
1.31577e+08,-80.6491
1.31644e+08,-80.5067
1.31711e+08,-80.346
1.31777e+08,-79.6997
1.31844e+08,-79.9821
1.31911e+08,-80.8064
1.31977e+08,-80.1205
1.32044e+08,-80.9366
1.32111e+08,-81.0025
1.32177e+08,-80.4818
1.32244e+08,-81.246
1.32311e+08,-81.0615
1.32377e+08,-79.9612
1.32444e+08,-78.498
1.32511e+08,-81.4922
1.32578e+08,-81.3189
1.32644e+08,-80.1701
1.32711e+08,-80.2886
1.32778e+08,-80.631
1.32844e+08,-81.0767
1.32911e+08,-80.5422
1.32978e+08,-80.4967
1.33044e+08,-80.9606
1.33111e+08,-81.0491
1.33178e+08,-80.4117
1.33244e+08,-80.5187
1.33311e+08,-79.8869
1.33378e+08,-79.674
1.33444e+08,-79.6708
1.33511e+08,-79.8994
1.33578e+08,-81.1969
1.33645e+08,-79.1716
1.33711e+08,-80.8395
1.33778e+08,-80.2981
1.33845e+08,-80.1986
1.33911e+08,-79.5616
1.33978e+08,-80.6311
1.34045e+08,-81.3607
1.34111e+08,-80.4047
1.34178e+08,-80.6022
1.34245e+08,-81.2669
1.34311e+08,-80.9101
1.34378e+08,-80.76
1.34445e+08,-81.0231
1.34512e+08,-81.2453
1.34578e+08,-81.6531
1.34645e+08,-80.8107
1.34712e+08,-81.752
1.34778e+08,-79.5497
1.34845e+08,-80.1477
1.34912e+08,-79.9704
1.34978e+08,-82.3416
1.35045e+08,-80.6689
1.35112e+08,-80.6684
1.35178e+08,-75.7192
1.35245e+08,-81.4248
1.35312e+08,-81.1288
1.35378e+08,-80.9938
1.35445e+08,-82.2973
1.35512e+08,-81.1209
1.35579e+08,-81.2112
1.35645e+08,-81.8216
1.35712e+08,-81.3448
1.35779e+08,-81.8767
1.35845e+08,-81.2877
1.35912e+08,-81.9499
1.35979e+08,-81.8928
1.36045e+08,-81.9241
1.36112e+08,-81.5157
1.36179e+08,-81.9054
1.36245e+08,-80.8111
1.36312e+08,-82.0433
1.36379e+08,-82.1948
1.36445e+08,-82.053
1.36512e+08,-80.747
1.36579e+08,-82.1642
1.36646e+08,-81.9444
1.36712e+08,-82.7
1.36779e+08,-82.0398
1.36846e+08,-80.567
1.36912e+08,-81.4793
1.36979e+08,-83.0497
1.37046e+08,-82.0773
1.37112e+08,-82.6583
1.37179e+08,-81.2744
1.37246e+08,-82.8918
1.37312e+08,-82.5191
1.37379e+08,-82.9944
1.37446e+08,-82.0599
1.37513e+08,-81.4077
1.37579e+08,-82.7908
1.37646e+08,-81.2087
1.37713e+08,-81.9755
1.37779e+08,-83.7184
1.37846e+08,-82.2645
1.37913e+08,-82.4957
1.37979e+08,-82.5103
1.38046e+08,-81.491
1.38113e+08,-83.0734
1.38179e+08,-82.5659
1.38246e+08,-82.343
1.38313e+08,-80.5016
1.38379e+08,-82.6411
1.38446e+08,-82.7882
1.38513e+08,-82.3895
1.3858e+08,-82.5286
1.38646e+08,-82.9728
1.38713e+08,-83.3403
1.3878e+08,-81.56
1.38846e+08,-82.4058
1.38913e+08,-83.202
1.3898e+08,-82.5028
1.39046e+08,-82.8624
1.39113e+08,-81.5711
1.3918e+08,-81.5979
1.39246e+08,-80.987
1.39313e+08,-81.9066
1.3938e+08,-81.3404
1.39446e+08,-81.5244
1.39513e+08,-80.4416
1.3958e+08,-81.1453
1.39647e+08,-81.788
1.39713e+08,-80.9739
1.3978e+08,-80.7132
1.39847e+08,-80.8371
1.39913e+08,-82.3268
1.3998e+08,-81.3293
1.40047e+08,-80.9017
1.40113e+08,-80.6002
1.4018e+08,-78.7794
1.40247e+08,-78.4727
1.40313e+08,-79.9269
1.4038e+08,-81.0907
1.40447e+08,-81.087
1.40514e+08,-79.6778
1.4058e+08,-81.3914
1.40647e+08,-81.7944
1.40714e+08,-80.5774
1.4078e+08,-81.2638
1.40847e+08,-80.0624
1.40914e+08,-79.0784
1.4098e+08,-79.5247
1.41047e+08,-81.0825
1.41114e+08,-80.2606
1.4118e+08,-79.9374
1.41247e+08,-79.9482
1.41314e+08,-81.3959
1.4138e+08,-80.6151
1.41447e+08,-78.822
1.41514e+08,-77.5121
1.41581e+08,-76.7597
1.41647e+08,-77.968
1.41714e+08,-79.4681
1.41781e+08,-80.4365
1.41847e+08,-82.264
1.41914e+08,-80.9447
1.41981e+08,-80.8242
1.42047e+08,-80.0936
1.42114e+08,-78.2581
1.42181e+08,-78.225
1.42247e+08,-78.2758
1.42314e+08,-77.4655
1.42381e+08,-77.2131
1.42447e+08,-77.7944
1.42514e+08,-78.9115
1.42581e+08,-78.4004
1.42648e+08,-79.6975
1.42714e+08,-79.517
1.42781e+08,-80.9096
1.42848e+08,-80.102
1.42914e+08,-80.1623
1.42981e+08,-69.9099
1.43048e+08,-81.3129
1.43114e+08,-80.8786
1.43181e+08,-79.7404
1.43248e+08,-79.9247
1.43314e+08,-79.602
1.43381e+08,-80.4907
1.43448e+08,-78.6345
1.43515e+08,-77.9404
1.43581e+08,-80.3187
1.43648e+08,-79.9358
1.43715e+08,-81.9161
1.43781e+08,-83.1984
1.43848e+08,-82.019
1.43915e+08,-81.6034
1.43981e+08,-81.724
1.44048e+08,-82.1921
1.44115e+08,-83.0202
1.44181e+08,-81.719
1.44248e+08,-81.9157
1.44315e+08,-82.5504
1.44381e+08,-81.8579
1.44448e+08,-81.4159
1.44515e+08,-81.4728
1.44582e+08,-81.5471
1.44648e+08,-81.7784
1.44715e+08,-81.618
1.44782e+08,-80.9422
1.44848e+08,-82.234
1.44915e+08,-82.1161
1.44982e+08,-82.7665
1.45048e+08,-82.0424
1.45115e+08,-82.7302
1.45182e+08,-82.6829
1.45248e+08,-82.2866
1.45315e+08,-81.1935
1.45382e+08,-81.9464
1.45448e+08,-82.2295
1.45515e+08,-82.0643
1.45582e+08,-81.9664
1.45649e+08,-81.6594
1.45715e+08,-81.3127
1.45782e+08,-81.9255
1.45849e+08,-69.3357
1.45915e+08,-54.996
1.45982e+08,-82.9417
1.46049e+08,-81.9342
1.46115e+08,-82.184
1.46182e+08,-83.1638
1.46249e+08,-81.8935
1.46315e+08,-81.7553
1.46382e+08,-82.0107
1.46449e+08,-82.3636
1.46516e+08,-81.8136
1.46582e+08,-81.9948
1.46649e+08,-82.5944
1.46716e+08,-81.9364
1.46782e+08,-82.0584
1.46849e+08,-82.9633
1.46916e+08,-80.4822
1.46982e+08,-81.2204
1.47049e+08,-81.604
1.47116e+08,-81.9191
1.47182e+08,-82.3243
1.47249e+08,-82.1571
1.47316e+08,-81.7899
1.47382e+08,-81.8424
1.47449e+08,-82.5537
1.47516e+08,-80.233
1.47583e+08,-81.3756
1.47649e+08,-81.3583
1.47716e+08,-82.3993
1.47783e+08,-81.5469
1.47849e+08,-82.0069
1.47916e+08,-81.5288
1.47983e+08,-81.5147
1.48049e+08,-81.1141
1.48116e+08,-79.3133
1.48183e+08,-81.3142
1.48249e+08,-82.6055
1.48316e+08,-83.2015
1.48383e+08,-81.9885
1.48449e+08,-82.3787
1.48516e+08,-82.3255
1.48583e+08,-83.0516
1.4865e+08,-82.019
1.48716e+08,-82.0076
1.48783e+08,-82.2601
1.4885e+08,-82.0066
1.48916e+08,-82.7566
1.48983e+08,-82.9513
1.4905e+08,-82.732
1.49116e+08,-82.4837
1.49183e+08,-81.8076
1.4925e+08,-80.4164
1.49316e+08,-82.6908
1.49383e+08,-82.3981
1.4945e+08,-82.2625
1.49517e+08,-81.1325
1.49583e+08,-81.7308
1.4965e+08,-80.4043
1.49717e+08,-83.2034
1.49783e+08,-81.2589
1.4985e+08,-81.2717
1.49917e+08,-82.4168
1.49983e+08,-81.452
1.5005e+08,-81.9328
1.50117e+08,-81.7267
1.50183e+08,-82.0984
1.5025e+08,-82.9337
1.50317e+08,-82.2709
1.50383e+08,-81.9375
1.5045e+08,-82.9322
1.50517e+08,-81.9724
1.50584e+08,-82.7441
1.5065e+08,-81.183
1.50717e+08,-78.8499
1.50784e+08,-80.0078
1.5085e+08,-82.9979
1.50917e+08,-81.5234
1.50984e+08,-81.4682
1.5105e+08,-81.5773
1.51117e+08,-82.8192
1.51184e+08,-81.4497
1.5125e+08,-83.0397
1.51317e+08,-81.7739
1.51384e+08,-81.0728
1.5145e+08,-81.9762
1.51517e+08,-82.0482
1.51584e+08,-83.0535
1.51651e+08,-82.8112
1.51717e+08,-81.6589
1.51784e+08,-81.5752
1.51851e+08,-77.5464
1.51917e+08,-82.8132
1.51984e+08,-81.5531
1.52051e+08,-81.556
1.52117e+08,-82.1315
1.52184e+08,-81.5653
1.52251e+08,-82.5176
1.52317e+08,-82.2783
1.52384e+08,-82.8416
1.52451e+08,-82.7854
1.52518e+08,-82.169
1.52584e+08,-81.7117
1.52651e+08,-82.1606
1.52718e+08,-82.8391
1.52784e+08,-82.399
1.52851e+08,-82.5207
1.52918e+08,-82.6755
1.52984e+08,-82.0009
1.53051e+08,-83.0875
1.53118e+08,-81.459
1.53184e+08,-82.7009
1.53251e+08,-83.4551
1.53318e+08,-82.0931
1.53384e+08,-82.0269
1.53451e+08,-82.4511
1.53518e+08,-82.6671
1.53585e+08,-81.6413
1.53651e+08,-82.2607
1.53718e+08,-81.5504
1.53785e+08,-81.6642
1.53851e+08,-82.4062
1.53918e+08,-82.2662
1.53985e+08,-81.5759
1.54051e+08,-81.7993
1.54118e+08,-81.4243
1.54185e+08,-82.0136
1.54251e+08,-81.7625
1.54318e+08,-82.5831
1.54385e+08,-81.6807
1.54451e+08,-81.9573
1.54518e+08,-82.0584
1.54585e+08,-83.2964
1.54652e+08,-82.9978
1.54718e+08,-82.1303
1.54785e+08,-82.4372
1.54852e+08,-83.682
1.54918e+08,-82.5631
1.54985e+08,-79.5224
1.55052e+08,-82.8695
1.55118e+08,-82.9012
1.55185e+08,-81.5324
1.55252e+08,-81.8045
1.55318e+08,-82.4104
1.55385e+08,-82.0337
1.55452e+08,-81.5753
1.55519e+08,-82.87
1.55585e+08,-82.1091
1.55652e+08,-82.6471
1.55719e+08,-82.7966
1.55785e+08,-83.5222
1.55852e+08,-81.1143
1.55919e+08,-82.6765
1.55985e+08,-82.5822
1.56052e+08,-82.6676
1.56119e+08,-81.2779
1.56185e+08,-65.9585
1.56252e+08,-78.3
1.56319e+08,-82.0815
1.56385e+08,-82.475
1.56452e+08,-82.3563
1.56519e+08,-81.7454
1.56586e+08,-83.4429
1.56652e+08,-81.5214
1.56719e+08,-82.3391
1.56786e+08,-82.3424
1.56852e+08,-81.5751
1.56919e+08,-81.9713
1.56986e+08,-81.4027
1.57052e+08,-81.823
1.57119e+08,-82.4121
1.57186e+08,-81.8935
1.57252e+08,-82.4531
1.57319e+08,-82.3498
1.57386e+08,-82.856
1.57452e+08,-81.5984
1.57519e+08,-83.0129
1.57586e+08,-82.727
1.57653e+08,-82.3057
1.57719e+08,-82.3203
1.57786e+08,-82.4913
1.57853e+08,-82.725
1.57919e+08,-82.349
1.57986e+08,-80.3117
1.58053e+08,-83.0089
1.58119e+08,-63.5185
1.58186e+08,-82.6712
1.58253e+08,-81.0179
1.58319e+08,-82.0701
1.58386e+08,-81.6786
1.58453e+08,-81.453
1.5852e+08,-82.3445
1.58586e+08,-81.9624
1.58653e+08,-83.2322
1.5872e+08,-82.4077
1.58786e+08,-82.2859
1.58853e+08,-82.125
1.5892e+08,-82.1467
1.58986e+08,-82.4669
1.59053e+08,-81.569
1.5912e+08,-82.9439
1.59186e+08,-83.1073
1.59253e+08,-80.133
1.5932e+08,-82.3385
1.59386e+08,-82.7214
1.59453e+08,-82.7566
1.5952e+08,-80.8729
1.59587e+08,-81.3088
1.59653e+08,-82.8189
1.5972e+08,-82.1667
1.59787e+08,-82.6631
1.59853e+08,-83.3202
1.5992e+08,-82.0251
1.59987e+08,-83.5471
1.60053e+08,-82.7243
1.6012e+08,-81.7785
1.60187e+08,-83.4805
1.60253e+08,-82.3885
1.6032e+08,-83.2828
1.60387e+08,-83.8005
1.60453e+08,-83.3582
1.6052e+08,-82.9293
1.60587e+08,-73.7694
1.60654e+08,-81.7816
1.6072e+08,-81.2332
1.60787e+08,-82.585
1.60854e+08,-82.2591
1.6092e+08,-83.0489
1.60987e+08,-82.1944
1.61054e+08,-82.7167
1.6112e+08,-81.6335
1.61187e+08,-83.1629
1.61254e+08,-82.7152
1.6132e+08,-81.1987
1.61387e+08,-64.0368
1.61454e+08,-64.1913
1.61521e+08,-65.6275
1.61587e+08,-81.9507
1.61654e+08,-81.6892
1.61721e+08,-81.9933
1.61787e+08,-83.2634
1.61854e+08,-82.4223
1.61921e+08,-82.5648
1.61987e+08,-82.8375
1.62054e+08,-82.7132
1.62121e+08,-82.681
1.62187e+08,-82.7439
1.62254e+08,-82.8395
1.62321e+08,-82.4727
1.62387e+08,-82.3382
1.62454e+08,-82.1313
1.62521e+08,-82.7216
1.62588e+08,-73.9344
1.62654e+08,-82.1335
1.62721e+08,-82.724
1.62788e+08,-82.9041
1.62854e+08,-82.8189
1.62921e+08,-82.8869
1.62988e+08,-81.6475
1.63054e+08,-80.7161
1.63121e+08,-82.9097
1.63188e+08,-82.6022
1.63254e+08,-81.8983
1.63321e+08,-82.5465
1.63388e+08,-83.0965
1.63454e+08,-81.6545
1.63521e+08,-80.7568
1.63588e+08,-82.4631
1.63655e+08,-82.2042
1.63721e+08,-82.2225
1.63788e+08,-81.8475
1.63855e+08,-82.668
1.63921e+08,-82.6873
1.63988e+08,-82.8063
1.64055e+08,-83.2252
1.64121e+08,-82.4015
1.64188e+08,-82.2265
1.64255e+08,-83.3425
1.64321e+08,-82.2443
1.64388e+08,-83.0641
1.64455e+08,-83.1425
1.64522e+08,-81.3767
1.64588e+08,-83.0461
1.64655e+08,-83.6969
1.64722e+08,-82.3207
1.64788e+08,-82.4041
1.64855e+08,-82.5428
1.64922e+08,-81.6964
1.64988e+08,-81.3868
1.65055e+08,-83.0096
1.65122e+08,-82.3786
1.65188e+08,-83.3099
1.65255e+08,-82.8613
1.65322e+08,-82.7363
1.65388e+08,-82.0759
1.65455e+08,-82.6244
1.65522e+08,-83.1973
1.65589e+08,-82.2122
1.65655e+08,-82.5484
1.65722e+08,-83.7424
1.65789e+08,-81.6969
1.65855e+08,-81.944
1.65922e+08,-83.144
1.65989e+08,-82.8114
1.66055e+08,-82.7188
1.66122e+08,-83.5402
1.66189e+08,-83.4224
1.66255e+08,-81.2958
1.66322e+08,-81.977
1.66389e+08,-82.4924
1.66455e+08,-83.2072
1.66522e+08,-82.8882
1.66589e+08,-83.1977
1.66656e+08,-82.4671
1.66722e+08,-83.0135
1.66789e+08,-82.7773
1.66856e+08,-83.439
1.66922e+08,-82.8004
1.66989e+08,-81.5999
1.67056e+08,-83.4896
1.67122e+08,-82.7989
1.67189e+08,-82.6508
1.67256e+08,-82.7497
1.67322e+08,-83.071
1.67389e+08,-83.0291
1.67456e+08,-82.7963
1.67523e+08,-82.3415
1.67589e+08,-81.7902
1.67656e+08,-82.8594
1.67723e+08,-82.2829
1.67789e+08,-83.0675
1.67856e+08,-82.1018
1.67923e+08,-82.1124
1.67989e+08,-82.7923
1.68056e+08,-82.7197
1.68123e+08,-83.5955
1.68189e+08,-82.4672
1.68256e+08,-82.3589
1.68323e+08,-80.7525
1.68389e+08,-82.9804
1.68456e+08,-82.6928
1.68523e+08,-81.1546
1.6859e+08,-82.2461
1.68656e+08,-83.2923
1.68723e+08,-82.3401
1.6879e+08,-83.4896
1.68856e+08,-83.2018
1.68923e+08,-83.3245
1.6899e+08,-81.9789
1.69056e+08,-82.9262
1.69123e+08,-82.4796
1.6919e+08,-83.0778
1.69256e+08,-82.7267
1.69323e+08,-82.6625
1.6939e+08,-82.6461
1.69456e+08,-83.4889
1.69523e+08,-82.8697
1.6959e+08,-82.2461
1.69657e+08,-82.5614
1.69723e+08,-83.2079
1.6979e+08,-82.8272
1.69857e+08,-83.4164
1.69923e+08,-82.3847
1.6999e+08,-82.7733
1.70057e+08,-82.2843
1.70123e+08,-82.8693
1.7019e+08,-82.7878
1.70257e+08,-82.9172
1.70323e+08,-83.5349
1.7039e+08,-81.0775
1.70457e+08,-82.7497
1.70524e+08,-82.3189
1.7059e+08,-81.8649
1.70657e+08,-82.5853
1.70724e+08,-83.0372
1.7079e+08,-81.1209
1.70857e+08,-82.6193
1.70924e+08,-80.4759
1.7099e+08,-82.4539
1.71057e+08,-83.2063
1.71124e+08,-81.6994
1.7119e+08,-82.4718
1.71257e+08,-83.2387
1.71324e+08,-82.7793
1.7139e+08,-82.5562
1.71457e+08,-83.1696
1.71524e+08,-83.2964
1.71591e+08,-81.185
1.71657e+08,-83.3125
1.71724e+08,-81.0245
1.71791e+08,-82.0056
1.71857e+08,-82.6752
1.71924e+08,-82.9827
1.71991e+08,-83.0028
1.72057e+08,-82.1336
1.72124e+08,-83.5082
1.72191e+08,-83.5253
1.72257e+08,-82.6523
1.72324e+08,-82.7276
1.72391e+08,-83.2005
1.72457e+08,-82.4467
1.72524e+08,-81.9817
1.72591e+08,-82.0551
1.72658e+08,-82.6692
1.72724e+08,-81.7551
1.72791e+08,-82.5693
1.72858e+08,-83.0377
1.72924e+08,-82.7392
1.72991e+08,-82.8762
1.73058e+08,-82.5948
1.73124e+08,-81.9735
1.73191e+08,-82.8503
1.73258e+08,-83.0513
1.73324e+08,-82.8046
1.73391e+08,-82.7076
1.73458e+08,-82.3236
1.73525e+08,-81.9815
1.73591e+08,-82.7502
1.73658e+08,-82.159
1.73725e+08,-82.0763
1.73791e+08,-81.8844
1.73858e+08,-81.9423
1.73925e+08,-82.1495
1.73991e+08,-82.9096
1.74058e+08,-83.1838
1.74125e+08,-82.2272
1.74191e+08,-82.5705
1.74258e+08,-81.612
1.74325e+08,-83.085
1.74391e+08,-82.4128
1.74458e+08,-82.3544
1.74525e+08,-82.6353
1.74592e+08,-82.0363
1.74658e+08,-82.8392
1.74725e+08,-83.5194
1.74792e+08,-81.7181
1.74858e+08,-82.6169
1.74925e+08,-82.0227
1.74992e+08,-82.2777
1.75058e+08,-81.7519
1.75125e+08,-83.1842
1.75192e+08,-84.023
1.75258e+08,-81.9208
1.75325e+08,-82.2637
1.75392e+08,-83.3316
1.75458e+08,-82.6362
1.75525e+08,-83.5708
1.75592e+08,-82.6114
1.75659e+08,-81.3854
1.75725e+08,-82.9996
1.75792e+08,-81.8584
1.75859e+08,-83.0401
1.75925e+08,-82.4712
1.75992e+08,-83.2286
1.76059e+08,-82.7922
1.76125e+08,-83.2832
1.76192e+08,-82.963
1.76259e+08,-83.0246
1.76325e+08,-83.578
1.76392e+08,-82.3437
1.76459e+08,-81.345
1.76526e+08,-82.1487
1.76592e+08,-82.9023
1.76659e+08,-81.027
1.76726e+08,-82.8196
1.76792e+08,-83.3686
1.76859e+08,-82.2484
1.76926e+08,-79.5283
1.76992e+08,-79.2755
1.77059e+08,-80.4515
1.77126e+08,-80.9708
1.77192e+08,-83.4921
1.77259e+08,-81.1962
1.77326e+08,-83.3128
1.77392e+08,-82.8227
1.77459e+08,-83.543
1.77526e+08,-82.6008
1.77593e+08,-82.8131
1.77659e+08,-82.5642
1.77726e+08,-82.2992
1.77793e+08,-82.8974
1.77859e+08,-82.7746
1.77926e+08,-81.8861
1.77993e+08,-82.7091
1.78059e+08,-82.5533
1.78126e+08,-82.4664
1.78193e+08,-82.9935
1.78259e+08,-83.0596
1.78326e+08,-83.6387
1.78393e+08,-83.249
1.78459e+08,-82.9583
1.78526e+08,-82.3972
1.78593e+08,-83.3291
1.7866e+08,-82.5488
1.78726e+08,-82.2878
1.78793e+08,-83.3579
1.7886e+08,-83.7427
1.78926e+08,-83.4134
1.78993e+08,-82.0964
1.7906e+08,-81.9252
1.79126e+08,-82.058
1.79193e+08,-82.5923
1.7926e+08,-81.0905
1.79326e+08,-82.3487
1.79393e+08,-82.1084
1.7946e+08,-82.8725
1.79527e+08,-83
1.79593e+08,-81.725
1.7966e+08,-83.1332
1.79727e+08,-81.2999
1.79793e+08,-83.1491
1.7986e+08,-81.7771
1.79927e+08,-83.2076
1.79993e+08,-82.4367
1.8006e+08,-83.344
1.80127e+08,-83.3046
1.80193e+08,-82.2081
1.8026e+08,-83.5131
1.80327e+08,-82.7197
1.80393e+08,-82.5397
1.8046e+08,-83.5869
1.80527e+08,-82.5308
1.80594e+08,-81.8005
1.8066e+08,-83.0332
1.80727e+08,-82.4781
1.80794e+08,-83.3602
1.8086e+08,-82.5837
1.80927e+08,-82.7799
1.80994e+08,-83.7221
1.8106e+08,-82.1599
1.81127e+08,-83.4889
1.81194e+08,-81.4477
1.8126e+08,-83.7292
1.81327e+08,-83.7242
1.81394e+08,-82.5164
1.8146e+08,-82.9855
1.81527e+08,-82.13
1.81594e+08,-82.61
1.81661e+08,-83.1224
1.81727e+08,-82.613
1.81794e+08,-83.689
1.81861e+08,-81.4986
1.81927e+08,-83.6295
1.81994e+08,-82.7638
1.82061e+08,-82.6065
1.82127e+08,-83.3806
1.82194e+08,-82.4632
1.82261e+08,-81.2535
1.82327e+08,-82.47
1.82394e+08,-81.9185
1.82461e+08,-82.0928
1.82528e+08,-83.2823
1.82594e+08,-82.6224
1.82661e+08,-83.3202
1.82728e+08,-81.9529
1.82794e+08,-83.5161
1.82861e+08,-83.5957
1.82928e+08,-82.867
1.82994e+08,-81.8079
1.83061e+08,-83.3475
1.83128e+08,-83.175
1.83194e+08,-82.8691
1.83261e+08,-82.3152
1.83328e+08,-82.3922
1.83394e+08,-81.8523
1.83461e+08,-81.9622
1.83528e+08,-82.6715
1.83595e+08,-82.5393
1.83661e+08,-81.6122
1.83728e+08,-82.7751
1.83795e+08,-82.7909
1.83861e+08,-83.0763
1.83928e+08,-82.0331
1.83995e+08,-82.2444
1.84061e+08,-82.2899
1.84128e+08,-83.7439
1.84195e+08,-82.5984
1.84261e+08,-82.4555
1.84328e+08,-82.5497
1.84395e+08,-82.067
1.84461e+08,-83.0005
1.84528e+08,-83.3234
1.84595e+08,-83.0708
1.84662e+08,-82.5989
1.84728e+08,-83.7349
1.84795e+08,-82.9107
1.84862e+08,-83.693
1.84928e+08,-83.1785
1.84995e+08,-83.3983
1.85062e+08,-81.1747
1.85128e+08,-83.6865
1.85195e+08,-83.1722
1.85262e+08,-82.4206
1.85328e+08,-83.2569
1.85395e+08,-83.3866
1.85462e+08,-83.2645
1.85529e+08,-82.505
1.85595e+08,-82.3985
1.85662e+08,-81.3551
1.85729e+08,-82.4171
1.85795e+08,-82.8536
1.85862e+08,-81.985
1.85929e+08,-82.7993
1.85995e+08,-82.7094
1.86062e+08,-82.4146
1.86129e+08,-82.9879
1.86195e+08,-82.4567
1.86262e+08,-82.6188
1.86329e+08,-82.4675
1.86395e+08,-82.3342
1.86462e+08,-82.9938
1.86529e+08,-82.669
1.86596e+08,-83.0768
1.86662e+08,-82.5361
1.86729e+08,-82.6354
1.86796e+08,-84.1481
1.86862e+08,-82.8456
1.86929e+08,-81.2594
1.86996e+08,-82.3763
1.87062e+08,-82.4659
1.87129e+08,-82.5088
1.87196e+08,-83.2343
1.87262e+08,-83.7523
1.87329e+08,-83.3808
1.87396e+08,-83.2199
1.87462e+08,-82.8782
1.87529e+08,-82.6978
1.87596e+08,-83.5959
1.87663e+08,-81.476
1.87729e+08,-81.9301
1.87796e+08,-82.7853
1.87863e+08,-82.9291
1.87929e+08,-82.4476
1.87996e+08,-81.7994
1.88063e+08,-82.6898
1.88129e+08,-82.661
1.88196e+08,-82.5683
1.88263e+08,-80.887
1.88329e+08,-82.5077
1.88396e+08,-83.1226
1.88463e+08,-83.2765
1.8853e+08,-82.658
1.88596e+08,-82.8532
1.88663e+08,-83.6419
1.8873e+08,-82.5923
1.88796e+08,-82.4765
1.88863e+08,-82.6959
1.8893e+08,-82.319
1.88996e+08,-83.1436
1.89063e+08,-82.9242
1.8913e+08,-82.9737
1.89196e+08,-82.9357
1.89263e+08,-82.5963
1.8933e+08,-82.8065
1.89396e+08,-83.001
1.89463e+08,-83.0047
1.8953e+08,-83.0886
1.89597e+08,-81.3463
1.89663e+08,-82.804
1.8973e+08,-82.7259
1.89797e+08,-82.1094
1.89863e+08,-83.048
1.8993e+08,-82.4483
1.89997e+08,-82.0399
1.90063e+08,-81.4685
1.9013e+08,-83.4831
1.90197e+08,-82.2361
1.90263e+08,-82.5448
1.9033e+08,-82.8815
1.90397e+08,-82.2539
1.90463e+08,-82.2842
1.9053e+08,-83.7781
1.90597e+08,-83.6771
1.90664e+08,-82.7311
1.9073e+08,-82.796
1.90797e+08,-83.1344
1.90864e+08,-80.4036
1.9093e+08,-83.0358
1.90997e+08,-81.9018
1.91064e+08,-82.7771
1.9113e+08,-83.3129
1.91197e+08,-82.5418
1.91264e+08,-83.9161
1.9133e+08,-81.5368
1.91397e+08,-82.3588
1.91464e+08,-82.5278
1.91531e+08,-83.3143
1.91597e+08,-82.5747
1.91664e+08,-83.1193
1.91731e+08,-82.6987
1.91797e+08,-83.321
1.91864e+08,-82.6209
1.91931e+08,-82.3587
1.91997e+08,-83.0489
1.92064e+08,-81.8606
1.92131e+08,-82.7609
1.92197e+08,-80.7952
1.92264e+08,-82.6866
1.92331e+08,-82.1588
1.92397e+08,-82.6572
1.92464e+08,-81.8024
1.92531e+08,-82.8484
1.92598e+08,-83.4335
1.92664e+08,-83.7529
1.92731e+08,-82.4233
1.92798e+08,-81.4199
1.92864e+08,-83.5205
1.92931e+08,-82.8165
1.92998e+08,-82.3937
1.93064e+08,-83.5592
1.93131e+08,-82.3731
1.93198e+08,-82.7816
1.93264e+08,-82.4785
1.93331e+08,-81.8843
1.93398e+08,-82.6578
1.93464e+08,-82.8994
1.93531e+08,-82.8989
1.93598e+08,-83.2596
1.93665e+08,-82.6355
1.93731e+08,-82.0231
1.93798e+08,-82.2244
1.93865e+08,-83.0011
1.93931e+08,-83.0725
1.93998e+08,-82.6938
1.94065e+08,-81.7465
1.94131e+08,-83.3165
1.94198e+08,-82.1218
1.94265e+08,-82.1519
1.94331e+08,-82.0111
1.94398e+08,-81.3938
1.94465e+08,-82.3553
1.94532e+08,-82.1193
1.94598e+08,-82.771
1.94665e+08,-84.0461
1.94732e+08,-82.9904
1.94798e+08,-83.4925
1.94865e+08,-82.9809
1.94932e+08,-83.3631
1.94998e+08,-83.451
1.95065e+08,-83.2833
1.95132e+08,-83.2177
1.95198e+08,-82.6442
1.95265e+08,-81.8513
1.95332e+08,-82.8937
1.95398e+08,-82.3875
1.95465e+08,-82.5978
1.95532e+08,-82.5852
1.95599e+08,-82.5847
1.95665e+08,-81.5469
1.95732e+08,-82.1523
1.95799e+08,-81.9177
1.95865e+08,-83.1863
1.95932e+08,-82.0708
1.95999e+08,-82.4619
1.96065e+08,-82.9761
1.96132e+08,-83.0559
1.96199e+08,-82.2721
1.96265e+08,-83.1061
1.96332e+08,-83.1398
1.96399e+08,-82.0144
1.96465e+08,-83.0832
1.96532e+08,-82.0398
1.96599e+08,-81.8671
1.96666e+08,-80.8469
1.96732e+08,-81.9593
1.96799e+08,-83.8605
1.96866e+08,-83.1101
1.96932e+08,-82.4867
1.96999e+08,-83.6563
1.97066e+08,-82.8516
1.97132e+08,-83.5018
1.97199e+08,-82.7023
1.97266e+08,-82.7346
1.97332e+08,-82.6769
1.97399e+08,-82.8366
1.97466e+08,-82.1738
1.97533e+08,-83.1824
1.97599e+08,-83.365
1.97666e+08,-82.4971
1.97733e+08,-83.4928
1.97799e+08,-82.5883
1.97866e+08,-83.668
1.97933e+08,-81.6992
1.97999e+08,-82.216
1.98066e+08,-83.0033
1.98133e+08,-83.8552
1.98199e+08,-81.3233
1.98266e+08,-82.0798
1.98333e+08,-82.3536
1.98399e+08,-82.3649
1.98466e+08,-82.6928
1.98533e+08,-82.2468
1.986e+08,-82.5984
1.98666e+08,-83.2388
1.98733e+08,-82.7564
1.988e+08,-83.1298
1.98866e+08,-83.3335
1.98933e+08,-82.4319
1.99e+08,-83.1369
1.99066e+08,-83.2098
1.99133e+08,-82.4701
1.992e+08,-82.207
1.99266e+08,-81.5056
1.99333e+08,-81.9173
1.994e+08,-82.1977
1.99466e+08,-81.6586
1.99533e+08,-83.0049
1.996e+08,-83.3368
1.99667e+08,-83.3671
1.99733e+08,-82.0955
1.998e+08,-83.5356
1.99867e+08,-83.5621
1.99933e+08,-81.0223
2e+08,-83.3206
