FileType,0
Number of Points,3000
Sweep Time,3e+08
Start Frequency,0
Stop Frequency,2e+08
Average Count,10
Average Type,0
RBW,10000
RBW Filter,0
RBW Filter BW,0
VBW,10000
Sweep Type,0
X Axis Scale,1
PreAmp State,0
Trigger Source,0
Trigger Level,-25
Trigger Edge,0
Trigger Delay Switch,0
Trigger Delay,1
Attenuation,0
Ref Level Offset,0
External Gain,0
Trace Type,0
Detector,0
Trace Math,5
Trace Math Oper1,4
Trace Math Oper2,5
Trace Math Offset,0
Trace Name,0
Full Span,2e+08
Y Axis Unit,0
DATA,
0,-30.5326
66688.9,-87.365
133378,-76.7823
200067,-70.1727
266756,-75.5794
333444,-78.6875
400133,-80.6131
466822,-80
533511,-77.9007
600200,-78.0459
666889,-79.9606
733578,-80.4499
800267,-78.8547
866956,-80.1916
933645,-79.5059
1.00033e+06,-79.5503
1.06702e+06,-79.5027
1.13371e+06,-79.4228
1.2004e+06,-79.9802
1.26709e+06,-79.3921
1.33378e+06,-79.8363
1.40047e+06,-76.1633
1.46716e+06,-79.1929
1.53384e+06,-79.4132
1.60053e+06,-78.1577
1.66722e+06,-79.4422
1.73391e+06,-79.992
1.8006e+06,-78.6347
1.86729e+06,-79.7708
1.93398e+06,-79.0839
2.00067e+06,-80.0908
2.06736e+06,-79.2353
2.13404e+06,-79.8989
2.20073e+06,-78.6856
2.26742e+06,-77.9915
2.33411e+06,-76.4025
2.4008e+06,-76.7334
2.46749e+06,-78.3412
2.53418e+06,-77.8095
2.60087e+06,-77.7181
2.66756e+06,-77.7066
2.73424e+06,-77.6126
2.80093e+06,-79.5544
2.86762e+06,-79.5076
2.93431e+06,-77.8199
3.001e+06,-77.9858
3.06769e+06,-78.512
3.13438e+06,-77.5967
3.20107e+06,-78.5991
3.26776e+06,-75.5795
3.33444e+06,-75.5145
3.40113e+06,-74.7322
3.46782e+06,-75.6711
3.53451e+06,-74.3209
3.6012e+06,-74.3772
3.66789e+06,-75.6646
3.73458e+06,-74.551
3.80127e+06,-77.5579
3.86796e+06,-79.0395
3.93464e+06,-79.5423
4.00133e+06,-77.8634
4.06802e+06,-79.5326
4.13471e+06,-77.2686
4.2014e+06,-76.3591
4.26809e+06,-74.4505
4.33478e+06,-73.0973
4.40147e+06,-76.1984
4.46816e+06,-77.3908
4.53484e+06,-79.8398
4.60153e+06,-76.772
4.66822e+06,-78.5122
4.73491e+06,-78.1152
4.8016e+06,-78.4582
4.86829e+06,-77.3825
4.93498e+06,-75.7395
5.00167e+06,-77.7425
5.06836e+06,-77.9652
5.13505e+06,-78.1897
5.20173e+06,-78.7206
5.26842e+06,-78.6066
5.33511e+06,-78.7543
5.4018e+06,-79.2406
5.46849e+06,-79.254
5.53518e+06,-77.5611
5.60187e+06,-77.4538
5.66856e+06,-78.0341
5.73525e+06,-77.0624
5.80193e+06,-79.2577
5.86862e+06,-79.1009
5.93531e+06,-79.5327
6.002e+06,-80.1308
6.06869e+06,-79.5184
6.13538e+06,-79.2029
6.20207e+06,-78.825
6.26876e+06,-78.8377
6.33545e+06,-78.7221
6.40213e+06,-78.8374
6.46882e+06,-79.8738
6.53551e+06,-78.9279
6.6022e+06,-77.6669
6.66889e+06,-79.3601
6.73558e+06,-79.3691
6.80227e+06,-80.1991
6.86896e+06,-80.2646
6.93565e+06,-80.6271
7.00233e+06,-79.926
7.06902e+06,-79.8577
7.13571e+06,-79.8964
7.2024e+06,-80.0138
7.26909e+06,-79.7275
7.33578e+06,-80.1176
7.40247e+06,-80.243
7.46916e+06,-79.3856
7.53585e+06,-79.9883
7.60253e+06,-79.9882
7.66922e+06,-79.9831
7.73591e+06,-79.7598
7.8026e+06,-80.8067
7.86929e+06,-79.6029
7.93598e+06,-80.6035
8.00267e+06,-79.8458
8.06936e+06,-80.8168
8.13605e+06,-79.261
8.20273e+06,-81.0578
8.26942e+06,-80.6715
8.33611e+06,-79.9618
8.4028e+06,-79.8885
8.46949e+06,-79.592
8.53618e+06,-80.4244
8.60287e+06,-80.5913
8.66956e+06,-80.4656
8.73625e+06,-80.7667
8.80293e+06,-79.9313
8.86962e+06,-80.3464
8.93631e+06,-80.3616
9.003e+06,-80.3358
9.06969e+06,-80.782
9.13638e+06,-79.9061
9.20307e+06,-79.4136
9.26976e+06,-80.7332
9.33645e+06,-79.9692
9.40313e+06,-80.8678
9.46982e+06,-80.1624
9.53651e+06,-81.088
9.6032e+06,-80.4218
9.66989e+06,-78.7097
9.73658e+06,-80.668
9.80327e+06,-80.1165
9.86996e+06,-80.8504
9.93665e+06,-79.8121
1.00033e+07,-80.5458
1.007e+07,-80.3886
1.01367e+07,-80.2803
1.02034e+07,-79.6752
1.02701e+07,-66.1411
1.03368e+07,-77.2824
1.04035e+07,-80.0663
1.04702e+07,-79.787
1.05368e+07,-80.1446
1.06035e+07,-79.7519
1.06702e+07,-80.5958
1.07369e+07,-80.9672
1.08036e+07,-79.8703
1.08703e+07,-80.52
1.0937e+07,-80.6193
1.10037e+07,-80.3731
1.10704e+07,-80.3006
1.1137e+07,-80.3408
1.12037e+07,-80.1623
1.12704e+07,-80.2729
1.13371e+07,-79.0445
1.14038e+07,-79.8685
1.14705e+07,-80.0297
1.15372e+07,-79.9648
1.16039e+07,-80.2286
1.16706e+07,-80.2787
1.17372e+07,-79.8309
1.18039e+07,-79.8544
1.18706e+07,-78.9288
1.19373e+07,-80.2148
1.2004e+07,-79.8967
1.20707e+07,-81.6492
1.21374e+07,-81.9503
1.22041e+07,-82.5354
1.22708e+07,-81.5957
1.23374e+07,-82.4067
1.24041e+07,-81.8725
1.24708e+07,-81.1962
1.25375e+07,-81.5602
1.26042e+07,-82.5865
1.26709e+07,-81.8703
1.27376e+07,-81.3907
1.28043e+07,-82.6601
1.2871e+07,-82.1849
1.29376e+07,-82.4184
1.30043e+07,-82.6242
1.3071e+07,-81.571
1.31377e+07,-81.6251
1.32044e+07,-82.8268
1.32711e+07,-82.2534
1.33378e+07,-81.8179
1.34045e+07,-82.8708
1.34712e+07,-82.5793
1.35378e+07,-81.9927
1.36045e+07,-81.4551
1.36712e+07,-82.7985
1.37379e+07,-82.1097
1.38046e+07,-81.3908
1.38713e+07,-82.1669
1.3938e+07,-81.8067
1.40047e+07,-83.051
1.40714e+07,-82.1005
1.4138e+07,-82.5398
1.42047e+07,-81.4262
1.42714e+07,-81.9485
1.43381e+07,-82.1891
1.44048e+07,-82.5921
1.44715e+07,-81.9184
1.45382e+07,-82.4656
1.46049e+07,-82.0832
1.46716e+07,-82.607
1.47382e+07,-81.2154
1.48049e+07,-82.531
1.48716e+07,-82.1133
1.49383e+07,-82.4354
1.5005e+07,-82.5361
1.50717e+07,-82.5559
1.51384e+07,-82.3238
1.52051e+07,-81.5503
1.52718e+07,-80.9639
1.53384e+07,-82.5913
1.54051e+07,-82.3183
1.54718e+07,-65.3006
1.55385e+07,-65.2127
1.56052e+07,-66.174
1.56719e+07,-82.5035
1.57386e+07,-81.2188
1.58053e+07,-81.6705
1.5872e+07,-82.3343
1.59386e+07,-82.1206
1.60053e+07,-82.2506
1.6072e+07,-82.0261
1.61387e+07,-81.9554
1.62054e+07,-82.9541
1.62721e+07,-81.9734
1.63388e+07,-82.9708
1.64055e+07,-82.7237
1.64722e+07,-81.204
1.65388e+07,-81.4279
1.66055e+07,-81.2879
1.66722e+07,-82.6145
1.67389e+07,-83.0573
1.68056e+07,-82.2572
1.68723e+07,-82.9486
1.6939e+07,-82.6708
1.70057e+07,-83.1167
1.70724e+07,-82.2814
1.7139e+07,-82.2512
1.72057e+07,-82.2902
1.72724e+07,-81.4399
1.73391e+07,-82.9448
1.74058e+07,-80.5125
1.74725e+07,-79.9309
1.75392e+07,-82.1986
1.76059e+07,-82.6206
1.76726e+07,-82.8111
1.77392e+07,-80.673
1.78059e+07,-80.615
1.78726e+07,-82.7989
1.79393e+07,-81.336
1.8006e+07,-81.9782
1.80727e+07,-82.0321
1.81394e+07,-81.5201
1.82061e+07,-81.6232
1.82728e+07,-82.0982
1.83394e+07,-82.8372
1.84061e+07,-82.3035
1.84728e+07,-82.4974
1.85395e+07,-82.8674
1.86062e+07,-81.2655
1.86729e+07,-81.9218
1.87396e+07,-81.1766
1.88063e+07,-82.6313
1.8873e+07,-81.8569
1.89396e+07,-81.8155
1.90063e+07,-80.268
1.9073e+07,-81.995
1.91397e+07,-80.8896
1.92064e+07,-82.8407
1.92731e+07,-82.5862
1.93398e+07,-82.6995
1.94065e+07,-81.9348
1.94732e+07,-80.5063
1.95398e+07,-82.5055
1.96065e+07,-82.4745
1.96732e+07,-82.638
1.97399e+07,-82.2925
1.98066e+07,-81.9826
1.98733e+07,-80.9686
1.994e+07,-82.4245
2.00067e+07,-81.0994
2.00734e+07,-81.9578
2.014e+07,-81.7678
2.02067e+07,-82.1535
2.02734e+07,-81.8292
2.03401e+07,-82.4039
2.04068e+07,-82.119
2.04735e+07,-82.7874
2.05402e+07,-82.7692
2.06069e+07,-82.5096
2.06736e+07,-81.408
2.07402e+07,-82.6871
2.08069e+07,-81.0284
2.08736e+07,-81.2281
2.09403e+07,-82.5747
2.1007e+07,-82.5433
2.10737e+07,-82.3167
2.11404e+07,-82.263
2.12071e+07,-80.9817
2.12738e+07,-80.5767
2.13404e+07,-82.0907
2.14071e+07,-81.635
2.14738e+07,-81.9894
2.15405e+07,-82.6034
2.16072e+07,-82.6235
2.16739e+07,-82.5919
2.17406e+07,-81.6226
2.18073e+07,-82.2303
2.1874e+07,-81.0587
2.19406e+07,-81.8073
2.20073e+07,-82.4828
2.2074e+07,-80.8488
2.21407e+07,-80.5576
2.22074e+07,-82.902
2.22741e+07,-82.4396
2.23408e+07,-82.1301
2.24075e+07,-82.0128
2.24742e+07,-81.6034
2.25408e+07,-81.5905
2.26075e+07,-80.5859
2.26742e+07,-81.8476
2.27409e+07,-81.5764
2.28076e+07,-80.6996
2.28743e+07,-81.5262
2.2941e+07,-82.7887
2.30077e+07,-81.5861
2.30744e+07,-81.6131
2.3141e+07,-81.6156
2.32077e+07,-81.168
2.32744e+07,-81.6544
2.33411e+07,-80.3126
2.34078e+07,-81.4575
2.34745e+07,-82.2708
2.35412e+07,-82.3035
2.36079e+07,-81.0481
2.36746e+07,-80.1104
2.37412e+07,-82.0389
2.38079e+07,-81.4961
2.38746e+07,-80.0107
2.39413e+07,-81.6698
2.4008e+07,-83.047
2.40747e+07,-81.1307
2.41414e+07,-78.5414
2.42081e+07,-81.2026
2.42748e+07,-81.4101
2.43414e+07,-82.0689
2.44081e+07,-82.1663
2.44748e+07,-82.0872
2.45415e+07,-81.8142
2.46082e+07,-82.7274
2.46749e+07,-82.1835
2.47416e+07,-82.2622
2.48083e+07,-82.9995
2.4875e+07,-81.3684
2.49416e+07,-81.1927
2.50083e+07,-81.8732
2.5075e+07,-82.688
2.51417e+07,-81.3569
2.52084e+07,-81.3713
2.52751e+07,-81.5189
2.53418e+07,-82.6021
2.54085e+07,-81.4326
2.54752e+07,-82.2122
2.55418e+07,-81.2608
2.56085e+07,-81.1046
2.56752e+07,-78.3366
2.57419e+07,-75.0987
2.58086e+07,-80.6935
2.58753e+07,-81.1546
2.5942e+07,-81.1102
2.60087e+07,-81.3877
2.60754e+07,-81.8219
2.6142e+07,-80.3715
2.62087e+07,-82.1591
2.62754e+07,-81.1333
2.63421e+07,-81.6534
2.64088e+07,-81.5326
2.64755e+07,-77.8115
2.65422e+07,-78.8539
2.66089e+07,-80.2872
2.66756e+07,-81.2472
2.67422e+07,-80.867
2.68089e+07,-78.152
2.68756e+07,-79.5284
2.69423e+07,-80.3452
2.7009e+07,-79.7039
2.70757e+07,-80.2088
2.71424e+07,-73.3249
2.72091e+07,-69.8822
2.72758e+07,-70.1211
2.73424e+07,-69.705
2.74091e+07,-73.0149
2.74758e+07,-78.4862
2.75425e+07,-78.7107
2.76092e+07,-78.7633
2.76759e+07,-79.0503
2.77426e+07,-77.315
2.78093e+07,-77.6019
2.7876e+07,-77.6325
2.79426e+07,-78.3364
2.80093e+07,-77.6724
2.8076e+07,-72.513
2.81427e+07,-74.2495
2.82094e+07,-74.7143
2.82761e+07,-77.6817
2.83428e+07,-78.1833
2.84095e+07,-76.6412
2.84762e+07,-77.6818
2.85428e+07,-77.0383
2.86095e+07,-76.5008
2.86762e+07,-75.9509
2.87429e+07,-76.8412
2.88096e+07,-77.4035
2.88763e+07,-68.7443
2.8943e+07,-68.4292
2.90097e+07,-70.2835
2.90764e+07,-76.0346
2.9143e+07,-76.9635
2.92097e+07,-78.5218
2.92764e+07,-77.4758
2.93431e+07,-77.4444
2.94098e+07,-77.9286
2.94765e+07,-78.3666
2.95432e+07,-77.1522
2.96099e+07,-76.5465
2.96766e+07,-75.518
2.97432e+07,-74.7701
2.98099e+07,-76.635
2.98766e+07,-78.0365
2.99433e+07,-76.1347
3.001e+07,-75.1878
3.00767e+07,-76.203
3.01434e+07,-74.7804
3.02101e+07,-74.4732
3.02768e+07,-74.0809
3.03434e+07,-74.718
3.04101e+07,-75.3287
3.04768e+07,-64.4287
3.05435e+07,-65.3241
3.06102e+07,-67.7726
3.06769e+07,-74.8193
3.07436e+07,-74.6639
3.08103e+07,-74.0772
3.0877e+07,-73.4422
3.09436e+07,-72.784
3.10103e+07,-65.7786
3.1077e+07,-63.4755
3.11437e+07,-67.8965
3.12104e+07,-71.211
3.12771e+07,-61.4477
3.13438e+07,-58.7894
3.14105e+07,-61.9932
3.14772e+07,-71.3226
3.15438e+07,-70.0858
3.16105e+07,-70.8088
3.16772e+07,-71.814
3.17439e+07,-69.264
3.18106e+07,-69.3742
3.18773e+07,-65.783
3.1944e+07,-66.127
3.20107e+07,-69.1646
3.20774e+07,-62.739
3.2144e+07,-56.4357
3.22107e+07,-56.5873
3.22774e+07,-67.9417
3.23441e+07,-66.7194
3.24108e+07,-67.4887
3.24775e+07,-67.5995
3.25442e+07,-68.1266
3.26109e+07,-66.8131
3.26776e+07,-65.691
3.27442e+07,-65.4613
3.28109e+07,-66.7038
3.28776e+07,-63.0382
3.29443e+07,-59.1037
3.3011e+07,-66.1086
3.30777e+07,-66.4861
3.31444e+07,-62.6813
3.32111e+07,-64.8405
3.32778e+07,-57.0001
3.33444e+07,-55.8586
3.34111e+07,-56.1894
3.34778e+07,-65.592
3.35445e+07,-66.4626
3.36112e+07,-66.6873
3.36779e+07,-66.2928
3.37446e+07,-65.5072
3.38113e+07,-64.8092
3.3878e+07,-65.296
3.39446e+07,-64.4188
3.40113e+07,-62.7826
3.4078e+07,-63.6425
3.41447e+07,-64.7966
3.42114e+07,-64.524
3.42781e+07,-64.4886
3.43448e+07,-63.5703
3.44115e+07,-63.6103
3.44782e+07,-54.6274
3.45448e+07,-55.1334
3.46115e+07,-57.666
3.46782e+07,-64.8082
3.47449e+07,-62.9451
3.48116e+07,-63.204
3.48783e+07,-63.2236
3.4945e+07,-62.304
3.50117e+07,-62.771
3.50784e+07,-64.0364
3.5145e+07,-63.0675
3.52117e+07,-64.4042
3.52784e+07,-62.5901
3.53451e+07,-63.587
3.54118e+07,-62.9916
3.54785e+07,-62.6284
3.55452e+07,-62.3284
3.56119e+07,-62.7447
3.56786e+07,-61.5055
3.57452e+07,-63.1407
3.58119e+07,-62.0601
3.58786e+07,-59.3479
3.59453e+07,-61.0451
3.6012e+07,-60.4659
3.60787e+07,-60.7527
3.61454e+07,-61.2544
3.62121e+07,-60.4346
3.62788e+07,-61.2382
3.63454e+07,-59.5754
3.64121e+07,-59.1348
3.64788e+07,-58.9682
3.65455e+07,-59.9543
3.66122e+07,-60.5623
3.66789e+07,-61.4151
3.67456e+07,-59.706
3.68123e+07,-60.442
3.6879e+07,-61.4389
3.69456e+07,-59.9289
3.70123e+07,-60.8741
3.7079e+07,-59.2481
3.71457e+07,-62.9301
3.72124e+07,-62.0762
3.72791e+07,-62.4249
3.73458e+07,-60.2027
3.74125e+07,-60.7625
3.74792e+07,-62.3143
3.75458e+07,-61.4869
3.76125e+07,-60.6329
3.76792e+07,-61.0148
3.77459e+07,-60.7846
3.78126e+07,-60.5751
3.78793e+07,-61.8603
3.7946e+07,-60.2024
3.80127e+07,-61.9886
3.80794e+07,-61.7376
3.8146e+07,-60.118
3.82127e+07,-61.6461
3.82794e+07,-61.5171
3.83461e+07,-60.0589
3.84128e+07,-59.448
3.84795e+07,-59.58
3.85462e+07,-58.9377
3.86129e+07,-62.3369
3.86796e+07,-59.9481
3.87462e+07,-59.0663
3.88129e+07,-59.4784
3.88796e+07,-61.6163
3.89463e+07,-60.5691
3.9013e+07,-60.3274
3.90797e+07,-60.4619
3.91464e+07,-61.5204
3.92131e+07,-60.2141
3.92798e+07,-58.7779
3.93464e+07,-59.6725
3.94131e+07,-60.5086
3.94798e+07,-60.3008
3.95465e+07,-59.7899
3.96132e+07,-58.5636
3.96799e+07,-59.6416
3.97466e+07,-61.7499
3.98133e+07,-60.739
3.988e+07,-59.6757
3.99466e+07,-61.2622
4.00133e+07,-61.7232
4.008e+07,-59.6358
4.01467e+07,-60.0168
4.02134e+07,-60.4611
4.02801e+07,-61.4954
4.03468e+07,-60.2342
4.04135e+07,-59.7546
4.04802e+07,-59.8159
4.05468e+07,-58.8744
4.06135e+07,-59.5661
4.06802e+07,-60.4375
4.07469e+07,-58.8704
4.08136e+07,-59.8056
4.08803e+07,-57.3541
4.0947e+07,-47.4733
4.10137e+07,-44.9773
4.10804e+07,-59.5558
4.1147e+07,-60.1949
4.12137e+07,-59.2039
4.12804e+07,-59.116
4.13471e+07,-59.7114
4.14138e+07,-59.5938
4.14805e+07,-60.3336
4.15472e+07,-60.1316
4.16139e+07,-59.7925
4.16806e+07,-59.7736
4.17472e+07,-59.134
4.18139e+07,-59.4472
4.18806e+07,-60.4339
4.19473e+07,-61.041
4.2014e+07,-59.5601
4.20807e+07,-60.9215
4.21474e+07,-60.4437
4.22141e+07,-59.7635
4.22808e+07,-60.1759
4.23474e+07,-59.0494
4.24141e+07,-58.5376
4.24808e+07,-57.1123
4.25475e+07,-59.2743
4.26142e+07,-60.1112
4.26809e+07,-59.2946
4.27476e+07,-59.24
4.28143e+07,-60.0993
4.2881e+07,-58.2726
4.29476e+07,-58.328
4.30143e+07,-58.4716
4.3081e+07,-58.089
4.31477e+07,-58.6645
4.32144e+07,-59.2634
4.32811e+07,-59.0343
4.33478e+07,-58.9275
4.34145e+07,-58.2443
4.34812e+07,-56.5755
4.35478e+07,-57.5109
4.36145e+07,-58.5131
4.36812e+07,-58.3142
4.37479e+07,-58.7604
4.38146e+07,-58.6033
4.38813e+07,-57.8697
4.3948e+07,-58.4853
4.40147e+07,-57.8211
4.40814e+07,-57.7234
4.4148e+07,-57.9269
4.42147e+07,-58.3184
4.42814e+07,-57.269
4.43481e+07,-58.7514
4.44148e+07,-56.4676
4.44815e+07,-53.998
4.45482e+07,-58.2042
4.46149e+07,-57.0306
4.46816e+07,-57.0384
4.47482e+07,-57.6544
4.48149e+07,-57.9039
4.48816e+07,-57.2217
4.49483e+07,-56.3431
4.5015e+07,-54.2394
4.50817e+07,-56.4861
4.51484e+07,-57.3584
4.52151e+07,-56.0522
4.52818e+07,-54.7332
4.53484e+07,-55.6835
4.54151e+07,-56.7367
4.54818e+07,-57.347
4.55485e+07,-55.6933
4.56152e+07,-54.9762
4.56819e+07,-56.6275
4.57486e+07,-56.2715
4.58153e+07,-55.0393
4.5882e+07,-55.3886
4.59486e+07,-55.8493
4.60153e+07,-56.0488
4.6082e+07,-55.5387
4.61487e+07,-55.9942
4.62154e+07,-54.95
4.62821e+07,-56.8944
4.63488e+07,-57.024
4.64155e+07,-57.9348
4.64822e+07,-57.7532
4.65488e+07,-58.1603
4.66155e+07,-59.6037
4.66822e+07,-58.6998
4.67489e+07,-59.9159
4.68156e+07,-58.7293
4.68823e+07,-57.6581
4.6949e+07,-59.2918
4.70157e+07,-59.9874
4.70824e+07,-58.6764
4.7149e+07,-59.843
4.72157e+07,-61.3042
4.72824e+07,-59.7086
4.73491e+07,-60.2534
4.74158e+07,-59.5969
4.74825e+07,-59.5763
4.75492e+07,-60.0513
4.76159e+07,-59.2667
4.76826e+07,-59.7718
4.77492e+07,-60.7257
4.78159e+07,-59.6555
4.78826e+07,-60.8619
4.79493e+07,-60.0077
4.8016e+07,-60.899
4.80827e+07,-59.9823
4.81494e+07,-61.3379
4.82161e+07,-59.2182
4.82828e+07,-61.1647
4.83494e+07,-60.9987
4.84161e+07,-60.4528
4.84828e+07,-60.7174
4.85495e+07,-60.6794
4.86162e+07,-59.488
4.86829e+07,-59.7228
4.87496e+07,-59.0701
4.88163e+07,-59.925
4.8883e+07,-58.2368
4.89496e+07,-58.9676
4.90163e+07,-59.5551
4.9083e+07,-60.0213
4.91497e+07,-60.7591
4.92164e+07,-58.3336
4.92831e+07,-58.6177
4.93498e+07,-59.0574
4.94165e+07,-58.6063
4.94832e+07,-58.9735
4.95498e+07,-56.4812
4.96165e+07,-58.9057
4.96832e+07,-60.136
4.97499e+07,-58.7086
4.98166e+07,-57.8221
4.98833e+07,-58.2944
4.995e+07,-58.3002
5.00167e+07,-56.8243
5.00834e+07,-58.5522
5.01501e+07,-58.6452
5.02167e+07,-58.2523
5.02834e+07,-59.2227
5.03501e+07,-58.6222
5.04168e+07,-57.4955
5.04835e+07,-58.9139
5.05502e+07,-57.556
5.06169e+07,-55.6989
5.06836e+07,-56.3656
5.07503e+07,-56.8751
5.08169e+07,-57.1013
5.08836e+07,-56.3901
5.09503e+07,-56.9838
5.1017e+07,-57.3221
5.10837e+07,-58.3266
5.11504e+07,-56.3356
5.12171e+07,-55.2012
5.12838e+07,-57.0262
5.13505e+07,-56.5782
5.14171e+07,-56.7068
5.14838e+07,-55.8131
5.15505e+07,-56.3714
5.16172e+07,-56.8272
5.16839e+07,-55.933
5.17506e+07,-55.3149
5.18173e+07,-55.9253
5.1884e+07,-56.2267
5.19507e+07,-55.5779
5.20173e+07,-55.0496
5.2084e+07,-56.1786
5.21507e+07,-55.7372
5.22174e+07,-55.8113
5.22841e+07,-56.7436
5.23508e+07,-54.7687
5.24175e+07,-55.4942
5.24842e+07,-57.1511
5.25509e+07,-57.4048
5.26175e+07,-57.193
5.26842e+07,-55.3303
5.27509e+07,-55.9126
5.28176e+07,-57.1654
5.28843e+07,-55.6403
5.2951e+07,-55.1672
5.30177e+07,-54.8331
5.30844e+07,-57.9203
5.31511e+07,-58.1481
5.32177e+07,-57.9244
5.32844e+07,-58.7028
5.33511e+07,-58.8589
5.34178e+07,-57.3855
5.34845e+07,-56.893
5.35512e+07,-57.7228
5.36179e+07,-57.2142
5.36846e+07,-58.5778
5.37513e+07,-56.2817
5.38179e+07,-55.7006
5.38846e+07,-58.4231
5.39513e+07,-58.3734
5.4018e+07,-57.7074
5.40847e+07,-56.9827
5.41514e+07,-57.6175
5.42181e+07,-59.2467
5.42848e+07,-54.9251
5.43515e+07,-58.5788
5.44181e+07,-57.5467
5.44848e+07,-59.3196
5.45515e+07,-58.111
5.46182e+07,-59.3044
5.46849e+07,-59.003
5.47516e+07,-58.0964
5.48183e+07,-57.97
5.4885e+07,-58.1225
5.49517e+07,-58.8851
5.50183e+07,-58.0351
5.5085e+07,-56.2293
5.51517e+07,-57.2174
5.52184e+07,-57.5011
5.52851e+07,-56.1717
5.53518e+07,-56.6251
5.54185e+07,-56.9406
5.54852e+07,-55.2687
5.55519e+07,-55.9688
5.56185e+07,-56.4021
5.56852e+07,-55.9158
5.57519e+07,-56.4525
5.58186e+07,-55.5007
5.58853e+07,-54.5097
5.5952e+07,-56.2256
5.60187e+07,-55.4588
5.60854e+07,-54.3615
5.61521e+07,-53.3918
5.62187e+07,-51.8829
5.62854e+07,-54.1885
5.63521e+07,-52.7162
5.64188e+07,-53.3093
5.64855e+07,-53.408
5.65522e+07,-53.2152
5.66189e+07,-52.0424
5.66856e+07,-51.9154
5.67523e+07,-51.6718
5.68189e+07,-52.0493
5.68856e+07,-52.3505
5.69523e+07,-52.5086
5.7019e+07,-51.1468
5.70857e+07,-50.5263
5.71524e+07,-49.8642
5.72191e+07,-51.4528
5.72858e+07,-51.4133
5.73525e+07,-48.7596
5.74191e+07,-49.8651
5.74858e+07,-51.4385
5.75525e+07,-50.0556
5.76192e+07,-50.1046
5.76859e+07,-50.0123
5.77526e+07,-48.6925
5.78193e+07,-50.0291
5.7886e+07,-49.9893
5.79527e+07,-49.2292
5.80193e+07,-50.6682
5.8086e+07,-48.8903
5.81527e+07,-48.6653
5.82194e+07,-49.3871
5.82861e+07,-49.7792
5.83528e+07,-48.4763
5.84195e+07,-49.1059
5.84862e+07,-49.0607
5.85529e+07,-48.7299
5.86195e+07,-48.66
5.86862e+07,-47.6299
5.87529e+07,-48.71
5.88196e+07,-48.7581
5.88863e+07,-46.8974
5.8953e+07,-48.0789
5.90197e+07,-45.69
5.90864e+07,-48.4617
5.91531e+07,-47.3707
5.92197e+07,-48.2919
5.92864e+07,-47.5849
5.93531e+07,-47.4518
5.94198e+07,-47.636
5.94865e+07,-48.4004
5.95532e+07,-46.9493
5.96199e+07,-47.7519
5.96866e+07,-47.5364
5.97533e+07,-47.2113
5.98199e+07,-47.3402
5.98866e+07,-46.7574
5.99533e+07,-47.3331
6.002e+07,-46.3414
6.00867e+07,-46.6581
6.01534e+07,-45.8858
6.02201e+07,-46.9536
6.02868e+07,-46.1507
6.03535e+07,-46.5921
6.04201e+07,-44.8769
6.04868e+07,-44.7531
6.05535e+07,-46.8271
6.06202e+07,-45.8979
6.06869e+07,-44.9915
6.07536e+07,-45.9408
6.08203e+07,-46.1979
6.0887e+07,-46.842
6.09537e+07,-45.7324
6.10203e+07,-45.2761
6.1087e+07,-47.2249
6.11537e+07,-46.7678
6.12204e+07,-45.492
6.12871e+07,-46.3392
6.13538e+07,-47.6195
6.14205e+07,-47.7637
6.14872e+07,-48.9016
6.15539e+07,-49.0859
6.16205e+07,-47.392
6.16872e+07,-48.3539
6.17539e+07,-48.8335
6.18206e+07,-49.526
6.18873e+07,-48.0402
6.1954e+07,-49.2262
6.20207e+07,-50.1656
6.20874e+07,-50.6653
6.21541e+07,-51.2218
6.22207e+07,-50.7756
6.22874e+07,-51.0435
6.23541e+07,-51.866
6.24208e+07,-51.9734
6.24875e+07,-51.0127
6.25542e+07,-51.3047
6.26209e+07,-51.5632
6.26876e+07,-52.8453
6.27543e+07,-52.2524
6.28209e+07,-51.6189
6.28876e+07,-52.7601
6.29543e+07,-53.2985
6.3021e+07,-53.1726
6.30877e+07,-54.4894
6.31544e+07,-54.6334
6.32211e+07,-52.9973
6.32878e+07,-53.0057
6.33545e+07,-52.4515
6.34211e+07,-51.3236
6.34878e+07,-51.7441
6.35545e+07,-54.5723
6.36212e+07,-54.8591
6.36879e+07,-53.8546
6.37546e+07,-53.3691
6.38213e+07,-43.932
6.3888e+07,-42.1283
6.39547e+07,-53.3982
6.40213e+07,-54.7239
6.4088e+07,-53.4478
6.41547e+07,-55.0775
6.42214e+07,-54.4047
6.42881e+07,-53.4581
6.43548e+07,-54.0256
6.44215e+07,-50.7292
6.44882e+07,-50.8367
6.45549e+07,-55.0425
6.46215e+07,-53.9582
6.46882e+07,-54.3718
6.47549e+07,-52.5022
6.48216e+07,-53.5861
6.48883e+07,-53.957
6.4955e+07,-53.415
6.50217e+07,-51.9074
6.50884e+07,-52.6735
6.51551e+07,-53.0402
6.52217e+07,-53.5832
6.52884e+07,-53.4507
6.53551e+07,-53.8817
6.54218e+07,-53.2178
6.54885e+07,-52.3822
6.55552e+07,-52.7075
6.56219e+07,-52.2691
6.56886e+07,-52.1769
6.57553e+07,-52.5
6.58219e+07,-52.0083
6.58886e+07,-53.8828
6.59553e+07,-53.096
6.6022e+07,-52.7253
6.60887e+07,-51.2909
6.61554e+07,-47.1341
6.62221e+07,-47.2028
6.62888e+07,-40.8423
6.63555e+07,-44.3454
6.64221e+07,-45.5421
6.64888e+07,-41.9672
6.65555e+07,-40.7295
6.66222e+07,-40.6931
6.66889e+07,-44.162
6.67556e+07,-42.8606
6.68223e+07,-40.5776
6.6889e+07,-42.6453
6.69557e+07,-42.6466
6.70223e+07,-43.3606
6.7089e+07,-43.4098
6.71557e+07,-40.397
6.72224e+07,-40.1791
6.72891e+07,-39.3267
6.73558e+07,-38.1783
6.74225e+07,-40.8985
6.74892e+07,-41.0715
6.75559e+07,-39.7974
6.76225e+07,-40.5561
6.76892e+07,-43.5137
6.77559e+07,-41.5798
6.78226e+07,-42.6544
6.78893e+07,-37.3578
6.7956e+07,-36.6033
6.80227e+07,-40.0025
6.80894e+07,-41.457
6.81561e+07,-40.6852
6.82227e+07,-42.5131
6.82894e+07,-44.2326
6.83561e+07,-42.7862
6.84228e+07,-41.2047
6.84895e+07,-41.2367
6.85562e+07,-41.0462
6.86229e+07,-40.6874
6.86896e+07,-41.891
6.87563e+07,-40.6426
6.88229e+07,-39.5631
6.88896e+07,-43.1122
6.89563e+07,-45.9124
6.9023e+07,-45.7745
6.90897e+07,-46.3197
6.91564e+07,-46.1075
6.92231e+07,-44.8601
6.92898e+07,-46.265
6.93565e+07,-46.5809
6.94231e+07,-43.4459
6.94898e+07,-45.7487
6.95565e+07,-43.5805
6.96232e+07,-24.3313
6.96899e+07,-45.9669
6.97566e+07,-46.537
6.98233e+07,-46.4237
6.989e+07,-47.6211
6.99567e+07,-45.0167
7.00233e+07,-45.41
7.009e+07,-43.3855
7.01567e+07,-45.5108
7.02234e+07,-44.4789
7.02901e+07,-44.4032
7.03568e+07,-45.7934
7.04235e+07,-45.7732
7.04902e+07,-45.4507
7.05569e+07,-44.6928
7.06235e+07,-45.5989
7.06902e+07,-42.2661
7.07569e+07,-44.8968
7.08236e+07,-44.6669
7.08903e+07,-45.1217
7.0957e+07,-29.1555
7.10237e+07,-45.5235
7.10904e+07,-46.5435
7.11571e+07,-46.5623
7.12237e+07,-46.4222
7.12904e+07,-47.192
7.13571e+07,-47.0954
7.14238e+07,-46.1685
7.14905e+07,-48.0823
7.15572e+07,-46.1428
7.16239e+07,-42.7777
7.16906e+07,-45.0527
7.17573e+07,-45.3599
7.18239e+07,-45.7281
7.18906e+07,-45.7648
7.19573e+07,-44.982
7.2024e+07,-47.1439
7.20907e+07,-47.1686
7.21574e+07,-47.0751
7.22241e+07,-45.9603
7.22908e+07,-47.3481
7.23575e+07,-47.8364
7.24241e+07,-47.8022
7.24908e+07,-47.3699
7.25575e+07,-48.1917
7.26242e+07,-48.589
7.26909e+07,-47.9002
7.27576e+07,-46.1292
7.28243e+07,-47.1253
7.2891e+07,-12.0801
7.29577e+07,-7.80671
7.30243e+07,-46.6073
7.3091e+07,-46.8506
7.31577e+07,-45.2976
7.32244e+07,-46.3611
7.32911e+07,-47.3712
7.33578e+07,-45.4287
7.34245e+07,-47.5952
7.34912e+07,-43.3548
7.35579e+07,-44.4925
7.36245e+07,-45.8306
7.36912e+07,-34.5244
7.37579e+07,-45.4181
7.38246e+07,-48.7602
7.38913e+07,-48.2657
7.3958e+07,-48.1495
7.40247e+07,-49.2118
7.40914e+07,-47.9122
7.41581e+07,-49.0121
7.42247e+07,-47.5932
7.42914e+07,-47.3581
7.43581e+07,-46.2419
7.44248e+07,-47.6347
7.44915e+07,-48.3278
7.45582e+07,-47.6559
7.46249e+07,-44.0153
7.46916e+07,-47.9191
7.47583e+07,-47.7884
7.48249e+07,-46.7133
7.48916e+07,-42.8234
7.49583e+07,-44.251
7.5025e+07,-41.7671
7.50917e+07,-45.6996
7.51584e+07,-43.6035
7.52251e+07,-41.8715
7.52918e+07,-40.9483
7.53585e+07,-41.5329
7.54251e+07,-43.2618
7.54918e+07,-42.8436
7.55585e+07,-40.2848
7.56252e+07,-39.2379
7.56919e+07,-45.937
7.57586e+07,-44.8085
7.58253e+07,-45.5214
7.5892e+07,-45.9434
7.59587e+07,-42.9179
7.60253e+07,-42.0278
7.6092e+07,-43.3786
7.61587e+07,-41.8947
7.62254e+07,-42.3251
7.62921e+07,-52.1962
7.63588e+07,-43.5699
7.64255e+07,-44.6804
7.64922e+07,-33.562
7.65589e+07,-48.489
7.66255e+07,-49.6863
7.66922e+07,-49.6896
7.67589e+07,-48.1337
7.68256e+07,-51.141
7.68923e+07,-50.6016
7.6959e+07,-24.5721
7.70257e+07,-50.3981
7.70924e+07,-46.7278
7.71591e+07,-48.0745
7.72257e+07,-50.7148
7.72924e+07,-44.205
7.73591e+07,-50.2204
7.74258e+07,-43.4189
7.74925e+07,-47.1731
7.75592e+07,-50.5622
7.76259e+07,-48.5458
7.76926e+07,-44.6674
7.77593e+07,-35.5151
7.78259e+07,-49.0848
7.78926e+07,-45.7323
7.79593e+07,-46.9823
7.8026e+07,-49.6917
7.80927e+07,-52.9327
7.81594e+07,-52.3925
7.82261e+07,-52.6299
7.82928e+07,-52.0626
7.83595e+07,-52.7234
7.84261e+07,-48.2468
7.84928e+07,-43.8289
7.85595e+07,-46.4954
7.86262e+07,-37.666
7.86929e+07,-49.8787
7.87596e+07,-34.7974
7.88263e+07,-47.9664
7.8893e+07,-48.1632
7.89597e+07,-33.2172
7.90263e+07,-47.0688
7.9093e+07,-43.4818
7.91597e+07,-48.6503
7.92264e+07,-45.2995
7.92931e+07,-41.6656
7.93598e+07,-52.2238
7.94265e+07,-52.8756
7.94932e+07,-52.2838
7.95599e+07,-52.0354
7.96265e+07,-52.6839
7.96932e+07,-49.6991
7.97599e+07,-48.2908
7.98266e+07,-48.5732
7.98933e+07,-47.9564
7.996e+07,-49.3544
8.00267e+07,-49.6545
8.00934e+07,-51.8707
8.01601e+07,-52.8909
8.02267e+07,-52.4544
8.02934e+07,-52.0539
8.03601e+07,-52.0045
8.04268e+07,-53.7515
8.04935e+07,-52.7021
8.05602e+07,-53.2188
8.06269e+07,-52.0759
8.06936e+07,-50.9581
8.07603e+07,-52.8047
8.08269e+07,-52.7348
8.08936e+07,-53.9581
8.09603e+07,-54.4826
8.1027e+07,-54.7535
8.10937e+07,-53.7623
8.11604e+07,-55.1846
8.12271e+07,-54.5909
8.12938e+07,-54.3119
8.13605e+07,-54.6624
8.14271e+07,-55.6263
8.14938e+07,-54.9873
8.15605e+07,-54.2908
8.16272e+07,-55.4309
8.16939e+07,-55.0791
8.17606e+07,-55.4056
8.18273e+07,-55.8614
8.1894e+07,-54.8988
8.19607e+07,-47.4834
8.20273e+07,-40.535
8.2094e+07,-55.3918
8.21607e+07,-55.6986
8.22274e+07,-54.8678
8.22941e+07,-53.1686
8.23608e+07,-54.1361
8.24275e+07,-55.9104
8.24942e+07,-53.5212
8.25609e+07,-55.3049
8.26275e+07,-55.8361
8.26942e+07,-55.5516
8.27609e+07,-53.2706
8.28276e+07,-50.0288
8.28943e+07,-46.5562
8.2961e+07,-50.153
8.30277e+07,-45.8153
8.30944e+07,-50.9976
8.31611e+07,-44.3507
8.32277e+07,-24.1685
8.32944e+07,-40.695
8.33611e+07,-48.8191
8.34278e+07,-52.8307
8.34945e+07,-51.9829
8.35612e+07,-53.8332
8.36279e+07,-55.1329
8.36946e+07,-55.5356
8.37613e+07,-54.5544
8.38279e+07,-55.8816
8.38946e+07,-54.1915
8.39613e+07,-51.6472
8.4028e+07,-53.7921
8.40947e+07,-54.3946
8.41614e+07,-53.8036
8.42281e+07,-55.9533
8.42948e+07,-56.3084
8.43615e+07,-55.0925
8.44281e+07,-54.8155
8.44948e+07,-55.5291
8.45615e+07,-56.1291
8.46282e+07,-55.7664
8.46949e+07,-56.5941
8.47616e+07,-56.1462
8.48283e+07,-57.5177
8.4895e+07,-57.5652
8.49617e+07,-58.2063
8.50283e+07,-57.726
8.5095e+07,-58.2036
8.51617e+07,-58.9863
8.52284e+07,-58.8773
8.52951e+07,-57.1319
8.53618e+07,-56.4589
8.54285e+07,-59.348
8.54952e+07,-59.6867
8.55619e+07,-58.8543
8.56285e+07,-59.7599
8.56952e+07,-60.0492
8.57619e+07,-61.6318
8.58286e+07,-62.3204
8.58953e+07,-61.4839
8.5962e+07,-61.9895
8.60287e+07,-63.3357
8.60954e+07,-63.9802
8.61621e+07,-63.6098
8.62287e+07,-64.3329
8.62954e+07,-64.3257
8.63621e+07,-66.3634
8.64288e+07,-68.2332
8.64955e+07,-68.517
8.65622e+07,-68.3636
8.66289e+07,-70.0403
8.66956e+07,-69.6523
8.67623e+07,-69.5223
8.68289e+07,-67.33
8.68956e+07,-70.9227
8.69623e+07,-70.2634
8.7029e+07,-73.2842
8.70957e+07,-74.7837
8.71624e+07,-75.208
8.72291e+07,-74.8802
8.72958e+07,-74.7628
8.73625e+07,-74.6779
8.74291e+07,-74.5299
8.74958e+07,-76.691
8.75625e+07,-76.3928
8.76292e+07,-53.0331
8.76959e+07,-42.2674
8.77626e+07,-44.5788
8.78293e+07,-48.8183
8.7896e+07,-77.3599
8.79627e+07,-76.921
8.80293e+07,-62.4016
8.8096e+07,-61.9109
8.81627e+07,-59.9751
8.82294e+07,-76.189
8.82961e+07,-75.0319
8.83628e+07,-45.7057
8.84295e+07,-18.9966
8.84962e+07,-19.382
8.85629e+07,-20.1349
8.86295e+07,-57.1418
8.86962e+07,-73.7342
8.87629e+07,-76.7336
8.88296e+07,-71.8343
8.88963e+07,-69.5462
8.8963e+07,-71.0605
8.90297e+07,-76.4394
8.90964e+07,-75.9062
8.91631e+07,-77.5288
8.92297e+07,-75.4968
8.92964e+07,-73.2735
8.93631e+07,-76.2828
8.94298e+07,-69.2347
8.94965e+07,-69.7134
8.95632e+07,-69.1826
8.96299e+07,-79.5231
8.96966e+07,-78.0899
8.97633e+07,-80.3014
8.98299e+07,-81.0764
8.98966e+07,-80.5493
8.99633e+07,-80.6982
9.003e+07,-74.5437
9.00967e+07,-73.7621
9.01634e+07,-80.9941
9.02301e+07,-80.1164
9.02968e+07,-80.7341
9.03635e+07,-80.7129
9.04301e+07,-75.6796
9.04968e+07,-73.1596
9.05635e+07,-75.0704
9.06302e+07,-81.0982
9.06969e+07,-79.9324
9.07636e+07,-77.4129
9.08303e+07,-77.7657
9.0897e+07,-77.8927
9.09637e+07,-79.3597
9.10303e+07,-79.9869
9.1097e+07,-79.8701
9.11637e+07,-80.3446
9.12304e+07,-80.7867
9.12971e+07,-76.4622
9.13638e+07,-77.3197
9.14305e+07,-71.4635
9.14972e+07,-67.4531
9.15639e+07,-68.4384
9.16305e+07,-79.4004
9.16972e+07,-79.102
9.17639e+07,-78.9841
9.18306e+07,-79.6025
9.18973e+07,-78.9516
9.1964e+07,-77.2474
9.20307e+07,-77.0873
9.20974e+07,-77.3806
9.21641e+07,-79.2249
9.22307e+07,-70.4137
9.22974e+07,-71.7235
9.23641e+07,-73.8467
9.24308e+07,-79.9928
9.24975e+07,-80.6496
9.25642e+07,-80.2073
9.26309e+07,-79.3548
9.26976e+07,-79.6195
9.27643e+07,-77.6235
9.28309e+07,-78.2185
9.28976e+07,-78.487
9.29643e+07,-81.3382
9.3031e+07,-81.3984
9.30977e+07,-80.6481
9.31644e+07,-80.0338
9.32311e+07,-80.504
9.32978e+07,-80.0768
9.33645e+07,-80.6755
9.34311e+07,-78.9813
9.34978e+07,-78.2269
9.35645e+07,-78.0215
9.36312e+07,-81.3715
9.36979e+07,-81.181
9.37646e+07,-80.7557
9.38313e+07,-79.4069
9.3898e+07,-79.7688
9.39647e+07,-81.2135
9.40313e+07,-81.8456
9.4098e+07,-81.0074
9.41647e+07,-80.0455
9.42314e+07,-81.3798
9.42981e+07,-81.7728
9.43648e+07,-81.382
9.44315e+07,-82.3081
9.44982e+07,-82.0474
9.45649e+07,-82.0296
9.46315e+07,-82.3137
9.46982e+07,-81.0986
9.47649e+07,-80.3773
9.48316e+07,-80.2126
9.48983e+07,-81.1313
9.4965e+07,-82.4443
9.50317e+07,-81.2686
9.50984e+07,-80.7069
9.51651e+07,-80.805
9.52317e+07,-80.4053
9.52984e+07,-82.1074
9.53651e+07,-82.1069
9.54318e+07,-82.0855
9.54985e+07,-81.3831
9.55652e+07,-80.6649
9.56319e+07,-82.1785
9.56986e+07,-82.0975
9.57653e+07,-82.1074
9.58319e+07,-82.2975
9.58986e+07,-82.2935
9.59653e+07,-82.229
9.6032e+07,-83.2136
9.60987e+07,-82.9474
9.61654e+07,-82.6297
9.62321e+07,-77.3455
9.62988e+07,-78.64
9.63655e+07,-82.5176
9.64321e+07,-82.3216
9.64988e+07,-82.393
9.65655e+07,-81.7256
9.66322e+07,-83.2927
9.66989e+07,-81.7113
9.67656e+07,-82.23
9.68323e+07,-83.4081
9.6899e+07,-81.2103
9.69657e+07,-83.1197
9.70323e+07,-75.7602
9.7099e+07,-74.4514
9.71657e+07,-75.5104
9.72324e+07,-82.8547
9.72991e+07,-82.3834
9.73658e+07,-82.6616
9.74325e+07,-82.4767
9.74992e+07,-81.7287
9.75659e+07,-82.7011
9.76325e+07,-82.4207
9.76992e+07,-81.2422
9.77659e+07,-82.9004
9.78326e+07,-82.9614
9.78993e+07,-80.7276
9.7966e+07,-82.4327
9.80327e+07,-82.1781
9.80994e+07,-81.8625
9.81661e+07,-83.0131
9.82327e+07,-82.3152
9.82994e+07,-82.7595
9.83661e+07,-82.1019
9.84328e+07,-82.2281
9.84995e+07,-82.2918
9.85662e+07,-82.4245
9.86329e+07,-81.6601
9.86996e+07,-77.6897
9.87663e+07,-68.2875
9.88329e+07,-69.4373
9.88996e+07,-81.4609
9.89663e+07,-82.447
9.9033e+07,-81.7037
9.90997e+07,-82.3016
9.91664e+07,-82.5039
9.92331e+07,-82.3364
9.92998e+07,-81.3225
9.93665e+07,-82.1893
9.94331e+07,-82.3098
9.94998e+07,-81.7606
9.95665e+07,-80.9142
9.96332e+07,-82.431
9.96999e+07,-81.9945
9.97666e+07,-82.1898
9.98333e+07,-81.6047
9.99e+07,-82.0519
9.99667e+07,-81.9786
1.00033e+08,-82.6266
1.001e+08,-82.9598
1.00167e+08,-82.3114
1.00233e+08,-82.1757
1.003e+08,-82.1999
1.00367e+08,-82.2563
1.00433e+08,-82.2487
1.005e+08,-82.3665
1.00567e+08,-82.3444
1.00634e+08,-82.5924
1.007e+08,-81.9284
1.00767e+08,-82.0176
1.00834e+08,-81.3881
1.009e+08,-81.1488
1.00967e+08,-82.4137
1.01034e+08,-82.3842
1.011e+08,-80.0513
1.01167e+08,-81.5386
1.01234e+08,-81.945
1.013e+08,-82.143
1.01367e+08,-82.3528
1.01434e+08,-82.2411
1.01501e+08,-82.323
1.01567e+08,-81.5949
1.01634e+08,-82.4415
1.01701e+08,-83.2107
1.01767e+08,-82.9743
1.01834e+08,-78.6289
1.01901e+08,-77.7184
1.01967e+08,-78.7415
1.02034e+08,-81.7281
1.02101e+08,-81.2982
1.02167e+08,-82.0908
1.02234e+08,-82.0205
1.02301e+08,-81.6192
1.02367e+08,-83.1066
1.02434e+08,-82.7284
1.02501e+08,-82.7657
1.02568e+08,-81.863
1.02634e+08,-80.9463
1.02701e+08,-79.0563
1.02768e+08,-82.532
1.02834e+08,-83.1584
1.02901e+08,-82.273
1.02968e+08,-82.8002
1.03034e+08,-83.2646
1.03101e+08,-82.3253
1.03168e+08,-82.6703
1.03234e+08,-83.0256
1.03301e+08,-80.3303
1.03368e+08,-82.9817
1.03434e+08,-82.6234
1.03501e+08,-67.4203
1.03568e+08,-83.2526
1.03635e+08,-81.3605
1.03701e+08,-82.9327
1.03768e+08,-82.4181
1.03835e+08,-81.4857
1.03901e+08,-71.6753
1.03968e+08,-70.7858
1.04035e+08,-71.4498
1.04101e+08,-70.8269
1.04168e+08,-72.0109
1.04235e+08,-60.8852
1.04301e+08,-56.7745
1.04368e+08,-58.4318
1.04435e+08,-72.3636
1.04502e+08,-71.4732
1.04568e+08,-82.9146
1.04635e+08,-80.8914
1.04702e+08,-69.0219
1.04768e+08,-80.0071
1.04835e+08,-81.805
1.04902e+08,-75.0418
1.04968e+08,-72.9742
1.05035e+08,-52.2805
1.05102e+08,-48.8936
1.05168e+08,-50.157
1.05235e+08,-75.105
1.05302e+08,-80.0669
1.05368e+08,-82.924
1.05435e+08,-78.8692
1.05502e+08,-76.947
1.05569e+08,-75.9696
1.05635e+08,-82.6405
1.05702e+08,-66.5093
1.05769e+08,-66.6443
1.05835e+08,-53.5552
1.05902e+08,-51.7946
1.05969e+08,-53.3326
1.06035e+08,-69.6082
1.06102e+08,-61.0743
1.06169e+08,-60.2896
1.06235e+08,-48.0619
1.06302e+08,-45.3734
1.06369e+08,-46.1494
1.06435e+08,-61.9587
1.06502e+08,-61.1004
1.06569e+08,-80.116
1.06636e+08,-72.7804
1.06702e+08,-74.8552
1.06769e+08,-73.5548
1.06836e+08,-81.4993
1.06902e+08,-81.8749
1.06969e+08,-82.3759
1.07036e+08,-69.0426
1.07102e+08,-68.4964
1.07169e+08,-69.8102
1.07236e+08,-81.9725
1.07302e+08,-64.1028
1.07369e+08,-64.2526
1.07436e+08,-43.3823
1.07503e+08,-44.3838
1.07569e+08,-46.9022
1.07636e+08,-73.1796
1.07703e+08,-73.9824
1.07769e+08,-76.3784
1.07836e+08,-58.1759
1.07903e+08,-58.8536
1.07969e+08,-65.6374
1.08036e+08,-73.6233
1.08103e+08,-73.0347
1.08169e+08,-82.3632
1.08236e+08,-82.734
1.08303e+08,-82.1575
1.08369e+08,-81.7445
1.08436e+08,-82.5858
1.08503e+08,-82.0256
1.0857e+08,-82.2554
1.08636e+08,-82.0211
1.08703e+08,-81.169
1.0877e+08,-81.3123
1.08836e+08,-81.6602
1.08903e+08,-81.3987
1.0897e+08,-81.1575
1.09036e+08,-81.2429
1.09103e+08,-81.4527
1.0917e+08,-80.9557
1.09236e+08,-81.7346
1.09303e+08,-81.6466
1.0937e+08,-81.4245
1.09436e+08,-81.9663
1.09503e+08,-80.9162
1.0957e+08,-80.0626
1.09637e+08,-80.5149
1.09703e+08,-80.765
1.0977e+08,-80.2445
1.09837e+08,-80.8309
1.09903e+08,-80.7032
1.0997e+08,-80.4596
1.10037e+08,-81.0175
1.10103e+08,-80.8809
1.1017e+08,-81.3082
1.10237e+08,-80.988
1.10303e+08,-80.8488
1.1037e+08,-81.6486
1.10437e+08,-80.8631
1.10504e+08,-80.4526
1.1057e+08,-77.6448
1.10637e+08,-73.7416
1.10704e+08,-78.9763
1.1077e+08,-80.598
1.10837e+08,-79.9036
1.10904e+08,-79.7454
1.1097e+08,-80.0717
1.11037e+08,-79.2367
1.11104e+08,-80.3176
1.1117e+08,-79.5806
1.11237e+08,-78.4809
1.11304e+08,-79.184
1.1137e+08,-78.7449
1.11437e+08,-79.9156
1.11504e+08,-78.6912
1.11571e+08,-78.0288
1.11637e+08,-79.0113
1.11704e+08,-78.1324
1.11771e+08,-77.5076
1.11837e+08,-77.8711
1.11904e+08,-78.6169
1.11971e+08,-77.1288
1.12037e+08,-77.9285
1.12104e+08,-77.2241
1.12171e+08,-77.2864
1.12237e+08,-77.8507
1.12304e+08,-77.7811
1.12371e+08,-77.1879
1.12437e+08,-77.4776
1.12504e+08,-77.9075
1.12571e+08,-76.7112
1.12638e+08,-76.34
1.12704e+08,-76.7349
1.12771e+08,-76.1764
1.12838e+08,-76.6013
1.12904e+08,-76.8526
1.12971e+08,-77.0241
1.13038e+08,-75.1539
1.13104e+08,-76.291
1.13171e+08,-76.3141
1.13238e+08,-75.6907
1.13304e+08,-76.9195
1.13371e+08,-76.113
1.13438e+08,-75.6285
1.13505e+08,-75.7584
1.13571e+08,-76.7628
1.13638e+08,-76.0225
1.13705e+08,-76.9243
1.13771e+08,-74.7123
1.13838e+08,-76.832
1.13905e+08,-76.0505
1.13971e+08,-73.9076
1.14038e+08,-75.7
1.14105e+08,-76.6787
1.14171e+08,-76.6271
1.14238e+08,-75.6951
1.14305e+08,-76.9452
1.14371e+08,-76.9271
1.14438e+08,-77.1925
1.14505e+08,-77.6004
1.14572e+08,-76.4986
1.14638e+08,-76.6387
1.14705e+08,-77.2938
1.14772e+08,-77.6386
1.14838e+08,-77.7041
1.14905e+08,-77.6972
1.14972e+08,-77.8649
1.15038e+08,-78.4991
1.15105e+08,-77.3194
1.15172e+08,-78.726
1.15238e+08,-77.2329
1.15305e+08,-78.1909
1.15372e+08,-79.1081
1.15438e+08,-77.4219
1.15505e+08,-79.3389
1.15572e+08,-78.3903
1.15639e+08,-76.9176
1.15705e+08,-77.2294
1.15772e+08,-68.7321
1.15839e+08,-69.3617
1.15905e+08,-74.0182
1.15972e+08,-74.0809
1.16039e+08,-74.9347
1.16105e+08,-75.6404
1.16172e+08,-74.005
1.16239e+08,-76.8955
1.16305e+08,-77.0823
1.16372e+08,-78.0549
1.16439e+08,-77.0296
1.16506e+08,-75.77
1.16572e+08,-76.3305
1.16639e+08,-75.1651
1.16706e+08,-74.7693
1.16772e+08,-75.0466
1.16839e+08,-73.7112
1.16906e+08,-75.2903
1.16972e+08,-72.7485
1.17039e+08,-71.6413
1.17106e+08,-71.4365
1.17172e+08,-72.9429
1.17239e+08,-72.4327
1.17306e+08,-71.9364
1.17372e+08,-73.6198
1.17439e+08,-72.2247
1.17506e+08,-72.2527
1.17573e+08,-72.9004
1.17639e+08,-71.1498
1.17706e+08,-71.7988
1.17773e+08,-70.9743
1.17839e+08,-72.4037
1.17906e+08,-72.2864
1.17973e+08,-71.5918
1.18039e+08,-71.3065
1.18106e+08,-70.8833
1.18173e+08,-71.4493
1.18239e+08,-71.9139
1.18306e+08,-70.5415
1.18373e+08,-71.373
1.18439e+08,-71.7165
1.18506e+08,-70.5768
1.18573e+08,-71.1348
1.1864e+08,-71.2825
1.18706e+08,-71.0806
1.18773e+08,-71.8518
1.1884e+08,-71.4516
1.18906e+08,-70.847
1.18973e+08,-71.4841
1.1904e+08,-72.5036
1.19106e+08,-71.6066
1.19173e+08,-71.8062
1.1924e+08,-72.4586
1.19306e+08,-71.8685
1.19373e+08,-71.6238
1.1944e+08,-71.8184
1.19507e+08,-72.6957
1.19573e+08,-72.162
1.1964e+08,-73.1731
1.19707e+08,-73.0436
1.19773e+08,-73.432
1.1984e+08,-72.0664
1.19907e+08,-73.8575
1.19973e+08,-73.1897
1.2004e+08,-73.179
1.20107e+08,-73.5352
1.20173e+08,-73.4002
1.2024e+08,-74.0333
1.20307e+08,-74.2595
1.20373e+08,-73.6348
1.2044e+08,-74.0473
1.20507e+08,-75.2957
1.20574e+08,-75.1387
1.2064e+08,-75.4757
1.20707e+08,-74.8793
1.20774e+08,-75.9953
1.2084e+08,-76.0054
1.20907e+08,-76.1403
1.20974e+08,-76.5798
1.2104e+08,-77.5533
1.21107e+08,-77.6377
1.21174e+08,-78.2951
1.2124e+08,-77.4385
1.21307e+08,-79.5282
1.21374e+08,-78.6938
1.2144e+08,-79.4506
1.21507e+08,-79.0594
1.21574e+08,-79.0263
1.21641e+08,-80.1638
1.21707e+08,-79.3909
1.21774e+08,-80.3913
1.21841e+08,-78.3686
1.21907e+08,-77.8608
1.21974e+08,-76.8934
1.22041e+08,-76.5134
1.22107e+08,-76.0919
1.22174e+08,-74.7221
1.22241e+08,-73.6006
1.22307e+08,-72.2694
1.22374e+08,-72.0765
1.22441e+08,-71.5106
1.22508e+08,-71.2657
1.22574e+08,-70.2055
1.22641e+08,-70.3524
1.22708e+08,-70.1385
1.22774e+08,-69.663
1.22841e+08,-69.3822
1.22908e+08,-68.7319
1.22974e+08,-68.1541
1.23041e+08,-68.7248
1.23108e+08,-68.3196
1.23174e+08,-68.621
1.23241e+08,-67.9417
1.23308e+08,-67.6786
1.23374e+08,-68.1461
1.23441e+08,-68.9099
1.23508e+08,-68.1616
1.23575e+08,-68.7923
1.23641e+08,-68.6494
1.23708e+08,-68.7205
1.23775e+08,-68.0263
1.23841e+08,-69.2574
1.23908e+08,-69.0476
1.23975e+08,-69.6412
1.24041e+08,-69.7117
1.24108e+08,-69.9665
1.24175e+08,-69.7926
1.24241e+08,-69.6819
1.24308e+08,-69.5877
1.24375e+08,-69.5097
1.24441e+08,-69.3792
1.24508e+08,-71.7108
1.24575e+08,-70.2992
1.24642e+08,-71.7869
1.24708e+08,-70.4765
1.24775e+08,-71.4688
1.24842e+08,-71.4799
1.24908e+08,-72.684
1.24975e+08,-73.0669
1.25042e+08,-72.3321
1.25108e+08,-73.3696
1.25175e+08,-72.9175
1.25242e+08,-73.2374
1.25308e+08,-73.4272
1.25375e+08,-73.9722
1.25442e+08,-73.311
1.25509e+08,-74.3382
1.25575e+08,-73.4622
1.25642e+08,-74.664
1.25709e+08,-75.0857
1.25775e+08,-75.0232
1.25842e+08,-75.7084
1.25909e+08,-75.3946
1.25975e+08,-75.3134
1.26042e+08,-76.0124
1.26109e+08,-75.9995
1.26175e+08,-76.2876
1.26242e+08,-75.0149
1.26309e+08,-74.6484
1.26375e+08,-77.0726
1.26442e+08,-76.7392
1.26509e+08,-77.4806
1.26576e+08,-78.0363
1.26642e+08,-77.1209
1.26709e+08,-78.416
1.26776e+08,-78.1477
1.26842e+08,-78.4174
1.26909e+08,-79.7226
1.26976e+08,-79.4749
1.27042e+08,-78.8485
1.27109e+08,-79.1108
1.27176e+08,-80.6822
1.27242e+08,-80.749
1.27309e+08,-81.189
1.27376e+08,-82.421
1.27442e+08,-82.5103
1.27509e+08,-81.1778
1.27576e+08,-81.4126
1.27643e+08,-81.9944
1.27709e+08,-81.5924
1.27776e+08,-80.8158
1.27843e+08,-80.0038
1.27909e+08,-80.1625
1.27976e+08,-79.8023
1.28043e+08,-80.1529
1.28109e+08,-80.4321
1.28176e+08,-62.0166
1.28243e+08,-59.7262
1.28309e+08,-78.1681
1.28376e+08,-78.4954
1.28443e+08,-78.5496
1.2851e+08,-79.085
1.28576e+08,-78.1707
1.28643e+08,-77.6906
1.2871e+08,-78.0811
1.28776e+08,-78.5614
1.28843e+08,-77.5711
1.2891e+08,-78.0841
1.28976e+08,-78.0587
1.29043e+08,-77.1657
1.2911e+08,-77.9169
1.29176e+08,-76.7438
1.29243e+08,-77.0993
1.2931e+08,-77.5356
1.29376e+08,-78.396
1.29443e+08,-77.3186
1.2951e+08,-77.4077
1.29577e+08,-78.5387
1.29643e+08,-78.108
1.2971e+08,-78.3934
1.29777e+08,-78.0844
1.29843e+08,-78.9516
1.2991e+08,-77.8204
1.29977e+08,-78.8735
1.30043e+08,-79.0003
1.3011e+08,-77.9538
1.30177e+08,-79.4694
1.30243e+08,-79.9324
1.3031e+08,-77.2852
1.30377e+08,-80.1468
1.30443e+08,-72.5342
1.3051e+08,-79.8468
1.30577e+08,-79.1946
1.30644e+08,-81.5096
1.3071e+08,-81.9607
1.30777e+08,-79.3725
1.30844e+08,-80.768
1.3091e+08,-80.4317
1.30977e+08,-80.9132
1.31044e+08,-81.1319
1.3111e+08,-81.5871
1.31177e+08,-79.7261
1.31244e+08,-81.234
1.3131e+08,-80.2933
1.31377e+08,-80.672
1.31444e+08,-81.4801
1.31511e+08,-80.4569
1.31577e+08,-80.2185
1.31644e+08,-80.444
1.31711e+08,-79.8739
1.31777e+08,-81.1328
1.31844e+08,-80.4247
1.31911e+08,-80.6345
1.31977e+08,-80.4713
1.32044e+08,-80.0458
1.32111e+08,-79.9127
1.32177e+08,-80.9451
1.32244e+08,-80.3773
1.32311e+08,-81.2194
1.32377e+08,-80.5583
1.32444e+08,-81.1117
1.32511e+08,-80.4972
1.32578e+08,-81.4215
1.32644e+08,-80.8694
1.32711e+08,-79.9475
1.32778e+08,-80.5855
1.32844e+08,-79.7988
1.32911e+08,-79.8537
1.32978e+08,-79.1998
1.33044e+08,-80.7146
1.33111e+08,-79.8244
1.33178e+08,-79.4019
1.33244e+08,-80.9213
1.33311e+08,-81.4963
1.33378e+08,-80.9266
1.33444e+08,-79.0277
1.33511e+08,-81.2757
1.33578e+08,-81.4007
1.33645e+08,-80.707
1.33711e+08,-81.6905
1.33778e+08,-81.476
1.33845e+08,-81.4621
1.33911e+08,-80.6103
1.33978e+08,-81.8027
1.34045e+08,-81.4205
1.34111e+08,-81.4033
1.34178e+08,-80.6693
1.34245e+08,-79.9275
1.34311e+08,-82.3059
1.34378e+08,-81.9402
1.34445e+08,-80.9564
1.34512e+08,-80.8835
1.34578e+08,-80.1469
1.34645e+08,-80.9076
1.34712e+08,-81.2929
1.34778e+08,-81.4016
1.34845e+08,-82.1228
1.34912e+08,-78.1849
1.34978e+08,-80.7154
1.35045e+08,-82.0852
1.35112e+08,-81.1692
1.35178e+08,-79.5226
1.35245e+08,-81.8281
1.35312e+08,-80.8181
1.35378e+08,-81.6608
1.35445e+08,-80.2651
1.35512e+08,-81.4328
1.35579e+08,-81.3095
1.35645e+08,-81.7242
1.35712e+08,-81.3217
1.35779e+08,-80.9972
1.35845e+08,-81.8306
1.35912e+08,-82.1365
1.35979e+08,-82.2565
1.36045e+08,-82.0489
1.36112e+08,-81.482
1.36179e+08,-82.149
1.36245e+08,-82.8322
1.36312e+08,-82.3353
1.36379e+08,-81.3431
1.36445e+08,-82.5257
1.36512e+08,-81.4086
1.36579e+08,-83.0607
1.36646e+08,-82.2075
1.36712e+08,-81.7717
1.36779e+08,-81.1761
1.36846e+08,-80.8503
1.36912e+08,-80.6701
1.36979e+08,-81.5396
1.37046e+08,-81.9449
1.37112e+08,-82.259
1.37179e+08,-82.1852
1.37246e+08,-82.1482
1.37312e+08,-81.5337
1.37379e+08,-81.8225
1.37446e+08,-82.0132
1.37513e+08,-82.9215
1.37579e+08,-81.9267
1.37646e+08,-82.2036
1.37713e+08,-81.9719
1.37779e+08,-81.8863
1.37846e+08,-82.3871
1.37913e+08,-80.4626
1.37979e+08,-82.2672
1.38046e+08,-82.5174
1.38113e+08,-82.5702
1.38179e+08,-83.077
1.38246e+08,-82.2431
1.38313e+08,-82.7814
1.38379e+08,-82.572
1.38446e+08,-81.9664
1.38513e+08,-83.2421
1.3858e+08,-81.1853
1.38646e+08,-81.6499
1.38713e+08,-82.1009
1.3878e+08,-81.6558
1.38846e+08,-81.6656
1.38913e+08,-81.9665
1.3898e+08,-81.807
1.39046e+08,-82.7759
1.39113e+08,-82.9653
1.3918e+08,-82.3472
1.39246e+08,-80.2074
1.39313e+08,-80.9547
1.3938e+08,-81.5691
1.39446e+08,-81.6336
1.39513e+08,-80.0323
1.3958e+08,-81.1161
1.39647e+08,-82.1995
1.39713e+08,-81.8541
1.3978e+08,-81.301
1.39847e+08,-81.1077
1.39913e+08,-81.6542
1.3998e+08,-81.7541
1.40047e+08,-81.0578
1.40113e+08,-80.5364
1.4018e+08,-80.5875
1.40247e+08,-80.0211
1.40313e+08,-81.0109
1.4038e+08,-80.9498
1.40447e+08,-80.549
1.40514e+08,-79.6586
1.4058e+08,-80.4966
1.40647e+08,-81.2483
1.40714e+08,-80.4775
1.4078e+08,-79.9858
1.40847e+08,-80.1982
1.40914e+08,-78.5132
1.4098e+08,-79.9672
1.41047e+08,-80.1416
1.41114e+08,-78.9498
1.4118e+08,-80.2074
1.41247e+08,-80.1343
1.41314e+08,-81.4496
1.4138e+08,-81.761
1.41447e+08,-80.9673
1.41514e+08,-77.6654
1.41581e+08,-77.6322
1.41647e+08,-78.5921
1.41714e+08,-80.0329
1.41781e+08,-81.0159
1.41847e+08,-81.7924
1.41914e+08,-81.4552
1.41981e+08,-81.212
1.42047e+08,-81.7769
1.42114e+08,-77.7462
1.42181e+08,-78.7052
1.42247e+08,-78.3438
1.42314e+08,-77.8465
1.42381e+08,-77.1677
1.42447e+08,-77.6518
1.42514e+08,-80.7453
1.42581e+08,-80.8385
1.42648e+08,-80.2961
1.42714e+08,-80.3727
1.42781e+08,-80.1633
1.42848e+08,-80.7615
1.42914e+08,-81.0652
1.42981e+08,-71.4879
1.43048e+08,-81.6928
1.43114e+08,-81.8004
1.43181e+08,-80.5985
1.43248e+08,-79.0634
1.43314e+08,-80.404
1.43381e+08,-80.3677
1.43448e+08,-78.9095
1.43515e+08,-77.4842
1.43581e+08,-79.7236
1.43648e+08,-80.6164
1.43715e+08,-80.963
1.43781e+08,-81.6699
1.43848e+08,-82.854
1.43915e+08,-82.6924
1.43981e+08,-82.4576
1.44048e+08,-81.9887
1.44115e+08,-82.3549
1.44181e+08,-81.4719
1.44248e+08,-81.9836
1.44315e+08,-81.7215
1.44381e+08,-82.2783
1.44448e+08,-82.607
1.44515e+08,-81.2522
1.44582e+08,-82.7225
1.44648e+08,-81.4211
1.44715e+08,-82.5053
1.44782e+08,-81.4505
1.44848e+08,-81.6897
1.44915e+08,-82.1307
1.44982e+08,-82.5722
1.45048e+08,-82.0823
1.45115e+08,-81.9735
1.45182e+08,-82.5133
1.45248e+08,-81.926
1.45315e+08,-81.5895
1.45382e+08,-82.9142
1.45448e+08,-81.0558
1.45515e+08,-82.4158
1.45582e+08,-82.2841
1.45649e+08,-82.1691
1.45715e+08,-82.2054
1.45782e+08,-82.4365
1.45849e+08,-70.6659
1.45915e+08,-56.0443
1.45982e+08,-82.0101
1.46049e+08,-81.2969
1.46115e+08,-82.491
1.46182e+08,-83.1556
1.46249e+08,-81.0595
1.46315e+08,-82.7801
1.46382e+08,-82.0759
1.46449e+08,-82.5881
1.46516e+08,-82.7119
1.46582e+08,-83.2063
1.46649e+08,-83.3898
1.46716e+08,-82.5094
1.46782e+08,-82.0258
1.46849e+08,-83.1588
1.46916e+08,-82.0683
1.46982e+08,-82.4086
1.47049e+08,-82.6611
1.47116e+08,-82.6373
1.47182e+08,-82.9127
1.47249e+08,-82.8205
1.47316e+08,-82.1126
1.47382e+08,-82.4548
1.47449e+08,-82.9669
1.47516e+08,-78.4396
1.47583e+08,-82.2989
1.47649e+08,-81.679
1.47716e+08,-82.0877
1.47783e+08,-83.1025
1.47849e+08,-82.7058
1.47916e+08,-82.531
1.47983e+08,-82.6618
1.48049e+08,-83.6064
1.48116e+08,-82.9217
1.48183e+08,-82.552
1.48249e+08,-82.5978
1.48316e+08,-83.0862
1.48383e+08,-82.6394
1.48449e+08,-82.9755
1.48516e+08,-80.5157
1.48583e+08,-83.0556
1.4865e+08,-82.4605
1.48716e+08,-82.2717
1.48783e+08,-81.5737
1.4885e+08,-82.6514
1.48916e+08,-82.5081
1.48983e+08,-83.2422
1.4905e+08,-83.3591
1.49116e+08,-83.5163
1.49183e+08,-81.5707
1.4925e+08,-82.5286
1.49316e+08,-83.223
1.49383e+08,-81.8097
1.4945e+08,-82.7369
1.49517e+08,-80.3663
1.49583e+08,-83.3214
1.4965e+08,-82.3923
1.49717e+08,-80.7504
1.49783e+08,-82.2488
1.4985e+08,-82.2781
1.49917e+08,-82.33
1.49983e+08,-82.4657
1.5005e+08,-81.8471
1.50117e+08,-82.2836
1.50183e+08,-82.5639
1.5025e+08,-82.7112
1.50317e+08,-83.1575
1.50383e+08,-82.6672
1.5045e+08,-83.4292
1.50517e+08,-82.788
1.50584e+08,-83.201
1.5065e+08,-82.4075
1.50717e+08,-78.507
1.50784e+08,-81.3817
1.5085e+08,-82.4592
1.50917e+08,-83.5243
1.50984e+08,-82.69
1.5105e+08,-82.5189
1.51117e+08,-82.0512
1.51184e+08,-82.2346
1.5125e+08,-81.2911
1.51317e+08,-83.3294
1.51384e+08,-82.9939
1.5145e+08,-82.8088
1.51517e+08,-81.5841
1.51584e+08,-81.5905
1.51651e+08,-82.8073
1.51717e+08,-83.5226
1.51784e+08,-82.0353
1.51851e+08,-82.5823
1.51917e+08,-81.4307
1.51984e+08,-82.2957
1.52051e+08,-82.0697
1.52117e+08,-81.2049
1.52184e+08,-82.7755
1.52251e+08,-82.8986
1.52317e+08,-82.1742
1.52384e+08,-82.6443
1.52451e+08,-82.8931
1.52518e+08,-81.5113
1.52584e+08,-81.8851
1.52651e+08,-81.9384
1.52718e+08,-81.7881
1.52784e+08,-81.7453
1.52851e+08,-81.8581
1.52918e+08,-82.5126
1.52984e+08,-82.4279
1.53051e+08,-81.4868
1.53118e+08,-81.9169
1.53184e+08,-83.792
1.53251e+08,-81.816
1.53318e+08,-83.6453
1.53384e+08,-83.2425
1.53451e+08,-82.1068
1.53518e+08,-83.1376
1.53585e+08,-82.1131
1.53651e+08,-81.6722
1.53718e+08,-82.1563
1.53785e+08,-83.8054
1.53851e+08,-81.9114
1.53918e+08,-82.5861
1.53985e+08,-82.2807
1.54051e+08,-82.6552
1.54118e+08,-80.8529
1.54185e+08,-82.588
1.54251e+08,-83.5294
1.54318e+08,-82.9395
1.54385e+08,-82.9795
1.54451e+08,-82.3865
1.54518e+08,-82.4202
1.54585e+08,-82.841
1.54652e+08,-82.7451
1.54718e+08,-83.4056
1.54785e+08,-83.1944
1.54852e+08,-83.4646
1.54918e+08,-82.8185
1.54985e+08,-80.4215
1.55052e+08,-82.0947
1.55118e+08,-82.1163
1.55185e+08,-82.7253
1.55252e+08,-83.5783
1.55318e+08,-82.1074
1.55385e+08,-82.7752
1.55452e+08,-82.9999
1.55519e+08,-82.6991
1.55585e+08,-82.2912
1.55652e+08,-82.242
1.55719e+08,-82.503
1.55785e+08,-81.4084
1.55852e+08,-82.7717
1.55919e+08,-81.4277
1.55985e+08,-81.5402
1.56052e+08,-83.4684
1.56119e+08,-81.3517
1.56185e+08,-69.4058
1.56252e+08,-80.3698
1.56319e+08,-82.4181
1.56385e+08,-82.2927
1.56452e+08,-82.4209
1.56519e+08,-82.2879
1.56586e+08,-82.7385
1.56652e+08,-82.4883
1.56719e+08,-81.9982
1.56786e+08,-82.005
1.56852e+08,-82.8359
1.56919e+08,-82.5519
1.56986e+08,-82.795
1.57052e+08,-81.467
1.57119e+08,-81.446
1.57186e+08,-81.3606
1.57252e+08,-82.5766
1.57319e+08,-83.4804
1.57386e+08,-82.3834
1.57452e+08,-81.6471
1.57519e+08,-82.3293
1.57586e+08,-83.5913
1.57653e+08,-82.4157
1.57719e+08,-81.1926
1.57786e+08,-82.4147
1.57853e+08,-82.059
1.57919e+08,-82.9124
1.57986e+08,-81.7698
1.58053e+08,-82.4548
1.58119e+08,-63.7857
1.58186e+08,-81.6661
1.58253e+08,-81.4
1.58319e+08,-81.9716
1.58386e+08,-81.9494
1.58453e+08,-82.4748
1.5852e+08,-82.087
1.58586e+08,-82.344
1.58653e+08,-82.4771
1.5872e+08,-82.4574
1.58786e+08,-81.4471
1.58853e+08,-82.4487
1.5892e+08,-83.2891
1.58986e+08,-83.1586
1.59053e+08,-82.1125
1.5912e+08,-82.9155
1.59186e+08,-83.4363
1.59253e+08,-82.8139
1.5932e+08,-81.9786
1.59386e+08,-82.1395
1.59453e+08,-82.1058
1.5952e+08,-82.3788
1.59587e+08,-82.1528
1.59653e+08,-82.9196
1.5972e+08,-82.915
1.59787e+08,-83.5617
1.59853e+08,-83.0323
1.5992e+08,-82.576
1.59987e+08,-82.5211
1.60053e+08,-82.7999
1.6012e+08,-80.9423
1.60187e+08,-82.2904
1.60253e+08,-82.9761
1.6032e+08,-82.297
1.60387e+08,-82.8777
1.60453e+08,-82.2696
1.6052e+08,-82.7406
1.60587e+08,-82.7919
1.60654e+08,-82.4314
1.6072e+08,-82.2789
1.60787e+08,-83.3302
1.60854e+08,-80.8245
1.6092e+08,-81.4242
1.60987e+08,-82.3071
1.61054e+08,-82.5752
1.6112e+08,-82.752
1.61187e+08,-81.9537
1.61254e+08,-82.6836
1.6132e+08,-82.35
1.61387e+08,-65.1158
1.61454e+08,-64.2342
1.61521e+08,-65.6859
1.61587e+08,-82.3556
1.61654e+08,-83.1719
1.61721e+08,-82.408
1.61787e+08,-82.8631
1.61854e+08,-82.4185
1.61921e+08,-83.7308
1.61987e+08,-83.1486
1.62054e+08,-81.8461
1.62121e+08,-81.3336
1.62187e+08,-82.8199
1.62254e+08,-82.5779
1.62321e+08,-82.6009
1.62387e+08,-82.4683
1.62454e+08,-82.0024
1.62521e+08,-83.1989
1.62588e+08,-72.8323
1.62654e+08,-83.0482
1.62721e+08,-82.5044
1.62788e+08,-82.6958
1.62854e+08,-82.644
1.62921e+08,-83.5862
1.62988e+08,-83.0953
1.63054e+08,-83.1447
1.63121e+08,-82.6854
1.63188e+08,-82.4277
1.63254e+08,-81.8264
1.63321e+08,-82.1433
1.63388e+08,-82.8753
1.63454e+08,-82.7504
1.63521e+08,-82.7022
1.63588e+08,-82.7933
1.63655e+08,-83.5632
1.63721e+08,-82.2412
1.63788e+08,-82.6883
1.63855e+08,-82.4573
1.63921e+08,-83.2094
1.63988e+08,-82.8829
1.64055e+08,-83.8631
1.64121e+08,-83.2669
1.64188e+08,-82.5673
1.64255e+08,-82.7125
1.64321e+08,-82.4731
1.64388e+08,-82.945
1.64455e+08,-82.3836
1.64522e+08,-83.0507
1.64588e+08,-82.246
1.64655e+08,-82.7016
1.64722e+08,-81.9927
1.64788e+08,-82.2709
1.64855e+08,-83.1395
1.64922e+08,-83.1015
1.64988e+08,-82.8149
1.65055e+08,-82.6392
1.65122e+08,-81.5199
1.65188e+08,-83.0086
1.65255e+08,-82.6023
1.65322e+08,-83.5857
1.65388e+08,-83.3982
1.65455e+08,-82.6757
1.65522e+08,-82.912
1.65589e+08,-82.9686
1.65655e+08,-82.4785
1.65722e+08,-82.0108
1.65789e+08,-75.4132
1.65855e+08,-81.0031
1.65922e+08,-82.8079
1.65989e+08,-82.8679
1.66055e+08,-82.7308
1.66122e+08,-82.8588
1.66189e+08,-82.2039
1.66255e+08,-83.8601
1.66322e+08,-82.4812
1.66389e+08,-82.4113
1.66455e+08,-81.2673
1.66522e+08,-82.3147
1.66589e+08,-83.139
1.66656e+08,-81.7436
1.66722e+08,-82.7099
1.66789e+08,-81.151
1.66856e+08,-81.5311
1.66922e+08,-82.8205
1.66989e+08,-82.9786
1.67056e+08,-83.169
1.67122e+08,-82.8634
1.67189e+08,-81.644
1.67256e+08,-82.8341
1.67322e+08,-82.1841
1.67389e+08,-82.6375
1.67456e+08,-82.7682
1.67523e+08,-82.6325
1.67589e+08,-83.1524
1.67656e+08,-82.1256
1.67723e+08,-82.8508
1.67789e+08,-82.7657
1.67856e+08,-83.1086
1.67923e+08,-83.2088
1.67989e+08,-83.0164
1.68056e+08,-83.6802
1.68123e+08,-82.925
1.68189e+08,-83.3514
1.68256e+08,-82.9159
1.68323e+08,-83.0221
1.68389e+08,-83.7089
1.68456e+08,-83.1208
1.68523e+08,-81.7189
1.6859e+08,-83.8018
1.68656e+08,-83.0859
1.68723e+08,-82.8961
1.6879e+08,-83.0062
1.68856e+08,-82.385
1.68923e+08,-83.4061
1.6899e+08,-82.7087
1.69056e+08,-83.0166
1.69123e+08,-82.8727
1.6919e+08,-83.6539
1.69256e+08,-82.5801
1.69323e+08,-82.5796
1.6939e+08,-82.6303
1.69456e+08,-82.5707
1.69523e+08,-82.7327
1.6959e+08,-83.0831
1.69657e+08,-82.4329
1.69723e+08,-83.5
1.6979e+08,-82.7587
1.69857e+08,-83.1732
1.69923e+08,-82.8302
1.6999e+08,-83.4545
1.70057e+08,-83.1381
1.70123e+08,-82.2573
1.7019e+08,-82.5692
1.70257e+08,-82.8156
1.70323e+08,-81.9946
1.7039e+08,-83.3306
1.70457e+08,-83.4902
1.70524e+08,-83.3984
1.7059e+08,-81.6821
1.70657e+08,-82.6683
1.70724e+08,-83.0579
1.7079e+08,-81.7375
1.70857e+08,-83.3399
1.70924e+08,-82.5794
1.7099e+08,-82.8343
1.71057e+08,-82.2125
1.71124e+08,-82.8984
1.7119e+08,-82.5656
1.71257e+08,-81.9144
1.71324e+08,-83.1495
1.7139e+08,-82.6509
1.71457e+08,-83.0151
1.71524e+08,-82.1863
1.71591e+08,-82.9975
1.71657e+08,-81.0845
1.71724e+08,-80.9851
1.71791e+08,-80.6504
1.71857e+08,-82.328
1.71924e+08,-83.0531
1.71991e+08,-83.1951
1.72057e+08,-82.7819
1.72124e+08,-82.0364
1.72191e+08,-83.4597
1.72257e+08,-81.7193
1.72324e+08,-82.3206
1.72391e+08,-82.8726
1.72457e+08,-82.5796
1.72524e+08,-83.2974
1.72591e+08,-82.2425
1.72658e+08,-82.7935
1.72724e+08,-83.1222
1.72791e+08,-83.4247
1.72858e+08,-82.7196
1.72924e+08,-82.2211
1.72991e+08,-83.1454
1.73058e+08,-83.2379
1.73124e+08,-83.6644
1.73191e+08,-82.9484
1.73258e+08,-82.9726
1.73324e+08,-82.7402
1.73391e+08,-83.2823
1.73458e+08,-83.5026
1.73525e+08,-82.2583
1.73591e+08,-83.078
1.73658e+08,-83.4443
1.73725e+08,-83.0105
1.73791e+08,-82.7046
1.73858e+08,-81.4093
1.73925e+08,-83.4991
1.73991e+08,-82.7392
1.74058e+08,-82.6587
1.74125e+08,-83.2384
1.74191e+08,-83.1785
1.74258e+08,-83.0605
1.74325e+08,-83.4349
1.74391e+08,-82.8007
1.74458e+08,-82.1118
1.74525e+08,-82.7754
1.74592e+08,-82.942
1.74658e+08,-82.5081
1.74725e+08,-82.974
1.74792e+08,-83.4882
1.74858e+08,-83.8045
1.74925e+08,-82.8169
1.74992e+08,-83.7763
1.75058e+08,-83.7849
1.75125e+08,-83.3121
1.75192e+08,-83.3763
1.75258e+08,-83.3456
1.75325e+08,-82.507
1.75392e+08,-83.0436
1.75458e+08,-83.1944
1.75525e+08,-82.6835
1.75592e+08,-82.7151
1.75659e+08,-81.9839
1.75725e+08,-81.1204
1.75792e+08,-82.0162
1.75859e+08,-83.1449
1.75925e+08,-82.3319
1.75992e+08,-83.106
1.76059e+08,-83.5226
1.76125e+08,-82.7432
1.76192e+08,-82.9671
1.76259e+08,-82.117
1.76325e+08,-82.4332
1.76392e+08,-82.8874
1.76459e+08,-83.0439
1.76526e+08,-83.4097
1.76592e+08,-82.9765
1.76659e+08,-83.6155
1.76726e+08,-82.7186
1.76792e+08,-83.1126
1.76859e+08,-82.5821
1.76926e+08,-81.0947
1.76992e+08,-80.4241
1.77059e+08,-79.572
1.77126e+08,-82.1781
1.77192e+08,-83.5627
1.77259e+08,-83.4303
1.77326e+08,-82.2107
1.77392e+08,-81.0812
1.77459e+08,-82.5539
1.77526e+08,-83.6671
1.77593e+08,-82.7201
1.77659e+08,-83.7336
1.77726e+08,-82.9555
1.77793e+08,-82.771
1.77859e+08,-83.3476
1.77926e+08,-81.9044
1.77993e+08,-82.9991
1.78059e+08,-82.4591
1.78126e+08,-82.4899
1.78193e+08,-82.8127
1.78259e+08,-82.0571
1.78326e+08,-82.6585
1.78393e+08,-82.0897
1.78459e+08,-82.6575
1.78526e+08,-82.7171
1.78593e+08,-83.1117
1.7866e+08,-81.8332
1.78726e+08,-82.4424
1.78793e+08,-83.0181
1.7886e+08,-83.1055
1.78926e+08,-82.634
1.78993e+08,-83.3175
1.7906e+08,-82.5497
1.79126e+08,-81.5508
1.79193e+08,-82.8051
1.7926e+08,-80.9056
1.79326e+08,-83.0726
1.79393e+08,-83.2843
1.7946e+08,-83.3529
1.79527e+08,-81.7832
1.79593e+08,-82.925
1.7966e+08,-83.5485
1.79727e+08,-82.0498
1.79793e+08,-83.4989
1.7986e+08,-82.792
1.79927e+08,-80.9431
1.79993e+08,-82.642
1.8006e+08,-83.0085
1.80127e+08,-82.4553
1.80193e+08,-82.1024
1.8026e+08,-82.4777
1.80327e+08,-83.1029
1.80393e+08,-82.7071
1.8046e+08,-81.787
1.80527e+08,-82.3628
1.80594e+08,-82.6494
1.8066e+08,-82.3425
1.80727e+08,-82.4429
1.80794e+08,-83.7964
1.8086e+08,-83.6152
1.80927e+08,-82.3753
1.80994e+08,-83.0894
1.8106e+08,-82.8359
1.81127e+08,-82.1821
1.81194e+08,-83.1386
1.8126e+08,-82.2077
1.81327e+08,-82.5169
1.81394e+08,-81.9224
1.8146e+08,-83.2003
1.81527e+08,-81.2659
1.81594e+08,-82.1295
1.81661e+08,-83.3277
1.81727e+08,-83.3619
1.81794e+08,-81.5554
1.81861e+08,-80.9516
1.81927e+08,-82.0332
1.81994e+08,-82.671
1.82061e+08,-81.7678
1.82127e+08,-83.5833
1.82194e+08,-81.7163
1.82261e+08,-83.1136
1.82327e+08,-82.6005
1.82394e+08,-81.8818
1.82461e+08,-82.6075
1.82528e+08,-82.5632
1.82594e+08,-82.9065
1.82661e+08,-82.8854
1.82728e+08,-83.4154
1.82794e+08,-81.5514
1.82861e+08,-82.3182
1.82928e+08,-83.0623
1.82994e+08,-82.3211
1.83061e+08,-82.441
1.83128e+08,-83.2348
1.83194e+08,-82.9808
1.83261e+08,-82.3036
1.83328e+08,-83.3368
1.83394e+08,-82.1197
1.83461e+08,-81.9919
1.83528e+08,-82.6675
1.83595e+08,-81.8362
1.83661e+08,-82.8492
1.83728e+08,-80.8654
1.83795e+08,-82.128
1.83861e+08,-82.665
1.83928e+08,-83.9015
1.83995e+08,-82.9043
1.84061e+08,-82.8093
1.84128e+08,-82.3319
1.84195e+08,-82.8616
1.84261e+08,-82.0231
1.84328e+08,-82.6094
1.84395e+08,-81.97
1.84461e+08,-81.951
1.84528e+08,-83.1347
1.84595e+08,-82.7361
1.84662e+08,-82.5829
1.84728e+08,-82.6504
1.84795e+08,-82.5224
1.84862e+08,-82.8978
1.84928e+08,-82.1725
1.84995e+08,-81.4365
1.85062e+08,-83.8607
1.85128e+08,-82.7199
1.85195e+08,-82.1024
1.85262e+08,-82.9196
1.85328e+08,-83.3652
1.85395e+08,-83.0985
1.85462e+08,-82.7621
1.85529e+08,-83.9406
1.85595e+08,-82.9295
1.85662e+08,-82.1632
1.85729e+08,-83.8741
1.85795e+08,-83.2534
1.85862e+08,-82.2841
1.85929e+08,-82.6414
1.85995e+08,-82.4857
1.86062e+08,-82.7291
1.86129e+08,-82.8183
1.86195e+08,-81.4415
1.86262e+08,-82.5232
1.86329e+08,-83.6234
1.86395e+08,-83.0236
1.86462e+08,-83.0694
1.86529e+08,-83.031
1.86596e+08,-82.8271
1.86662e+08,-83.1102
1.86729e+08,-83.2206
1.86796e+08,-82.0153
1.86862e+08,-83.0117
1.86929e+08,-80.3773
1.86996e+08,-83.7406
1.87062e+08,-81.9463
1.87129e+08,-83.6084
1.87196e+08,-81.8604
1.87262e+08,-82.4959
1.87329e+08,-83.3764
1.87396e+08,-82.238
1.87462e+08,-83.2409
1.87529e+08,-82.7914
1.87596e+08,-82.8155
1.87663e+08,-81.8752
1.87729e+08,-83.568
1.87796e+08,-83.4432
1.87863e+08,-82.5112
1.87929e+08,-83.0837
1.87996e+08,-82.4707
1.88063e+08,-83.3316
1.88129e+08,-83.2617
1.88196e+08,-81.9266
1.88263e+08,-82.6923
1.88329e+08,-82.7202
1.88396e+08,-82.3385
1.88463e+08,-83.0459
1.8853e+08,-82.9657
1.88596e+08,-82.4151
1.88663e+08,-82.7015
1.8873e+08,-81.3528
1.88796e+08,-82.9054
1.88863e+08,-82.25
1.8893e+08,-82.3618
1.88996e+08,-83.238
1.89063e+08,-82.443
1.8913e+08,-82.6294
1.89196e+08,-82.6409
1.89263e+08,-83.2316
1.8933e+08,-83.1796
1.89396e+08,-82.9009
1.89463e+08,-82.6349
1.8953e+08,-83.1482
1.89597e+08,-82.7881
1.89663e+08,-82.8205
1.8973e+08,-83.0195
1.89797e+08,-82.5403
1.89863e+08,-82.4962
1.8993e+08,-82.4838
1.89997e+08,-83.2434
1.90063e+08,-82.8876
1.9013e+08,-81.8825
1.90197e+08,-81.7865
1.90263e+08,-82.5051
1.9033e+08,-82.6526
1.90397e+08,-82.0182
1.90463e+08,-82.4089
1.9053e+08,-83.3349
1.90597e+08,-83.2648
1.90664e+08,-83.3513
1.9073e+08,-82.5812
1.90797e+08,-82.4142
1.90864e+08,-81.8071
1.9093e+08,-83.6113
1.90997e+08,-83.0606
1.91064e+08,-83.1837
1.9113e+08,-82.2638
1.91197e+08,-81.5805
1.91264e+08,-83.0122
1.9133e+08,-82.4891
1.91397e+08,-82.2579
1.91464e+08,-82.4092
1.91531e+08,-82.4009
1.91597e+08,-83.8996
1.91664e+08,-82.1676
1.91731e+08,-82.498
1.91797e+08,-83.1439
1.91864e+08,-82.841
1.91931e+08,-83.2591
1.91997e+08,-83.4691
1.92064e+08,-82.9726
1.92131e+08,-83.3272
1.92197e+08,-82.5382
1.92264e+08,-82.4071
1.92331e+08,-82.3167
1.92397e+08,-83.0459
1.92464e+08,-83.6858
1.92531e+08,-82.4999
1.92598e+08,-82.4756
1.92664e+08,-81.6124
1.92731e+08,-82.5143
1.92798e+08,-83.3747
1.92864e+08,-83.6465
1.92931e+08,-82.3395
1.92998e+08,-83.6183
1.93064e+08,-83.7087
1.93131e+08,-82.2294
1.93198e+08,-82.9515
1.93264e+08,-82.3058
1.93331e+08,-83.0983
1.93398e+08,-81.4823
1.93464e+08,-83.3084
1.93531e+08,-82.7914
1.93598e+08,-83.075
1.93665e+08,-82.0048
1.93731e+08,-82.1942
1.93798e+08,-83.0311
1.93865e+08,-82.7806
1.93931e+08,-82.8296
1.93998e+08,-82.9079
1.94065e+08,-83.3872
1.94131e+08,-83.4619
1.94198e+08,-82.7822
1.94265e+08,-82.9226
1.94331e+08,-83.8279
1.94398e+08,-81.5564
1.94465e+08,-82.5411
1.94532e+08,-83.6521
1.94598e+08,-83.6108
1.94665e+08,-83.8812
1.94732e+08,-83.4485
1.94798e+08,-83.3028
1.94865e+08,-82.8349
1.94932e+08,-83.2149
1.94998e+08,-83.5044
1.95065e+08,-82.8915
1.95132e+08,-83.4856
1.95198e+08,-82.9574
1.95265e+08,-83.3299
1.95332e+08,-82.8273
1.95398e+08,-83.5462
1.95465e+08,-82.0705
1.95532e+08,-83.6128
1.95599e+08,-83.2185
1.95665e+08,-83.1878
1.95732e+08,-82.3223
1.95799e+08,-83.1567
1.95865e+08,-81.5525
1.95932e+08,-82.8518
1.95999e+08,-83.0953
1.96065e+08,-82.0622
1.96132e+08,-82.9756
1.96199e+08,-83.5807
1.96265e+08,-83.1489
1.96332e+08,-83.5932
1.96399e+08,-83.0031
1.96465e+08,-81.8017
1.96532e+08,-82.3241
1.96599e+08,-82.7109
1.96666e+08,-83.5682
1.96732e+08,-82.8126
1.96799e+08,-82.5316
1.96866e+08,-83.9821
1.96932e+08,-82.8484
1.96999e+08,-83.7019
1.97066e+08,-83.1989
1.97132e+08,-82.2767
1.97199e+08,-83.099
1.97266e+08,-82.4405
1.97332e+08,-82.8703
1.97399e+08,-83.2701
1.97466e+08,-83.7214
1.97533e+08,-83.1265
1.97599e+08,-82.281
1.97666e+08,-81.9111
1.97733e+08,-82.5406
1.97799e+08,-83.1116
1.97866e+08,-82.9416
1.97933e+08,-81.7686
1.97999e+08,-81.89
1.98066e+08,-84.011
1.98133e+08,-83.3654
1.98199e+08,-83.4536
1.98266e+08,-82.6293
1.98333e+08,-83.0055
1.98399e+08,-83.7373
1.98466e+08,-83.8854
1.98533e+08,-83.5181
1.986e+08,-83.0501
1.98666e+08,-82.426
1.98733e+08,-82.6379
1.988e+08,-83.1643
1.98866e+08,-82.863
1.98933e+08,-82.5115
1.99e+08,-81.5791
1.99066e+08,-82.5949
1.99133e+08,-83.5271
1.992e+08,-82.4299
1.99266e+08,-80.824
1.99333e+08,-83.6251
1.994e+08,-82.1823
1.99466e+08,-82.596
1.99533e+08,-82.7216
1.996e+08,-83.0724
1.99667e+08,-82.9364
1.99733e+08,-84.1084
1.998e+08,-83.1266
1.99867e+08,-82.1327
1.99933e+08,-81.0223
2e+08,-83.5974
