FileType,0
Number of Points,3000
Sweep Time,3e+08
Start Frequency,0
Stop Frequency,2e+08
Average Count,10
Average Type,0
RBW,10000
RBW Filter,0
RBW Filter BW,0
VBW,10000
Sweep Type,0
X Axis Scale,1
PreAmp State,0
Trigger Source,0
Trigger Level,-25
Trigger Edge,0
Trigger Delay Switch,0
Trigger Delay,1
Attenuation,0
Ref Level Offset,0
External Gain,0
Trace Type,0
Detector,0
Trace Math,5
Trace Math Oper1,4
Trace Math Oper2,5
Trace Math Offset,0
Trace Name,0
Full Span,2e+08
Y Axis Unit,0
DATA,
0,-30.3513
66688.9,-84.5783
133378,-75.985
200067,-71.1844
266756,-76.9917
333444,-74.1665
400133,-79.0664
466822,-79.4418
533511,-77.1465
600200,-79.189
666889,-78.5013
733578,-79.0918
800267,-79.0677
866956,-79.6715
933645,-79.4551
1.00033e+06,-80.3953
1.06702e+06,-79.5027
1.13371e+06,-77.9221
1.2004e+06,-77.9864
1.26709e+06,-79.5118
1.33378e+06,-78.0968
1.40047e+06,-78.4944
1.46716e+06,-77.2672
1.53384e+06,-79.3812
1.60053e+06,-78.1023
1.66722e+06,-79.2645
1.73391e+06,-79.7453
1.8006e+06,-78.7616
1.86729e+06,-78.1752
1.93398e+06,-78.6273
2.00067e+06,-78.665
2.06736e+06,-79.9919
2.13404e+06,-78.3583
2.20073e+06,-78.7025
2.26742e+06,-79.8937
2.33411e+06,-77.8367
2.4008e+06,-79.1761
2.46749e+06,-77.5983
2.53418e+06,-79.3793
2.60087e+06,-78.7866
2.66756e+06,-77.4536
2.73424e+06,-78.3406
2.80093e+06,-78.3485
2.86762e+06,-78.2916
2.93431e+06,-74.3891
3.001e+06,-76.5318
3.06769e+06,-76.307
3.13438e+06,-76.6277
3.20107e+06,-76.4199
3.26776e+06,-69.1069
3.33444e+06,-68.8265
3.40113e+06,-72.8457
3.46782e+06,-77.3063
3.53451e+06,-78.8015
3.6012e+06,-76.7711
3.66789e+06,-76.6598
3.73458e+06,-77.0463
3.80127e+06,-75.2221
3.86796e+06,-74.374
3.93464e+06,-76.2921
4.00133e+06,-75.4457
4.06802e+06,-75.4776
4.13471e+06,-76.8584
4.2014e+06,-76.773
4.26809e+06,-76.9545
4.33478e+06,-76.4367
4.40147e+06,-75.856
4.46816e+06,-75.6121
4.53484e+06,-75.1722
4.60153e+06,-75.7524
4.66822e+06,-75.834
4.73491e+06,-74.5067
4.8016e+06,-73.4314
4.86829e+06,-72.8724
4.93498e+06,-71.8617
5.00167e+06,-71.7638
5.06836e+06,-72.576
5.13505e+06,-73.2977
5.20173e+06,-72.3221
5.26842e+06,-73.9389
5.33511e+06,-73.3748
5.4018e+06,-75.3439
5.46849e+06,-75.5771
5.53518e+06,-74.639
5.60187e+06,-73.5456
5.66856e+06,-72.4809
5.73525e+06,-73.5805
5.80193e+06,-74.7532
5.86862e+06,-73.4287
5.93531e+06,-74.3869
6.002e+06,-75.0037
6.06869e+06,-75.3307
6.13538e+06,-76.1277
6.20207e+06,-75.5723
6.26876e+06,-73.8731
6.33545e+06,-74.2835
6.40213e+06,-73.7425
6.46882e+06,-73.24
6.53551e+06,-73.2038
6.6022e+06,-62.7155
6.66889e+06,-74.2445
6.73558e+06,-76.3918
6.80227e+06,-77.6701
6.86896e+06,-78.7591
6.93565e+06,-78.7974
7.00233e+06,-78.6866
7.06902e+06,-78.4981
7.13571e+06,-78.1809
7.2024e+06,-79.9011
7.26909e+06,-79.5668
7.33578e+06,-79.9056
7.40247e+06,-78.0416
7.46916e+06,-79.7223
7.53585e+06,-79.0658
7.60253e+06,-79.2986
7.66922e+06,-79.698
7.73591e+06,-79.0124
7.8026e+06,-79.7645
7.86929e+06,-77.4703
7.93598e+06,-77.7734
8.00267e+06,-79.3797
8.06936e+06,-79.2567
8.13605e+06,-79.3018
8.20273e+06,-79.6445
8.26942e+06,-79.6396
8.33611e+06,-79.8886
8.4028e+06,-80.3271
8.46949e+06,-80.4817
8.53618e+06,-79.5919
8.60287e+06,-79.3508
8.66956e+06,-77.9331
8.73625e+06,-76.8608
8.80293e+06,-79.7716
8.86962e+06,-79.5116
8.93631e+06,-79.5487
9.003e+06,-77.0229
9.06969e+06,-78.3048
9.13638e+06,-79.6139
9.20307e+06,-79.8525
9.26976e+06,-78.0331
9.33645e+06,-79.8619
9.40313e+06,-79.2806
9.46982e+06,-77.0218
9.53651e+06,-77.5922
9.6032e+06,-79.5051
9.66989e+06,-78.6716
9.73658e+06,-80.0322
9.80327e+06,-79.4861
9.86996e+06,-79.4257
9.93665e+06,-79.1488
1.00033e+07,-78.8588
1.007e+07,-79.2416
1.01367e+07,-79.834
1.02034e+07,-77.433
1.02701e+07,-64.0547
1.03368e+07,-76.8948
1.04035e+07,-78.8366
1.04702e+07,-80.467
1.05368e+07,-78.7067
1.06035e+07,-78.0556
1.06702e+07,-79.2215
1.07369e+07,-78.6326
1.08036e+07,-78.018
1.08703e+07,-79.3785
1.0937e+07,-79.3548
1.10037e+07,-79.5158
1.10704e+07,-79.9014
1.1137e+07,-78.4283
1.12037e+07,-79.1572
1.12704e+07,-78.9442
1.13371e+07,-77.2175
1.14038e+07,-78.234
1.14705e+07,-77.917
1.15372e+07,-77.6712
1.16039e+07,-79.7122
1.16706e+07,-78.2593
1.17372e+07,-78.4671
1.18039e+07,-77.2663
1.18706e+07,-78.5739
1.19373e+07,-77.1894
1.2004e+07,-76.7607
1.20707e+07,-79.0102
1.21374e+07,-79.6532
1.22041e+07,-76.8127
1.22708e+07,-80.2477
1.23374e+07,-79.6929
1.24041e+07,-79.2569
1.24708e+07,-80.2539
1.25375e+07,-80.8264
1.26042e+07,-80.8092
1.26709e+07,-78.9289
1.27376e+07,-79.9774
1.28043e+07,-79.1429
1.2871e+07,-78.9991
1.29376e+07,-80.5574
1.30043e+07,-81.1427
1.3071e+07,-80.4491
1.31377e+07,-81.1821
1.32044e+07,-79.7151
1.32711e+07,-80.2057
1.33378e+07,-78.7551
1.34045e+07,-80.4543
1.34712e+07,-79.804
1.35378e+07,-78.2612
1.36045e+07,-79.9981
1.36712e+07,-80.2936
1.37379e+07,-79.7034
1.38046e+07,-80.5773
1.38713e+07,-79.9053
1.3938e+07,-79.4343
1.40047e+07,-80.3092
1.40714e+07,-80.7528
1.4138e+07,-80.5206
1.42047e+07,-79.6459
1.42714e+07,-79.6138
1.43381e+07,-78.4898
1.44048e+07,-79.1411
1.44715e+07,-79.739
1.45382e+07,-80.9813
1.46049e+07,-81.5069
1.46716e+07,-81.5942
1.47382e+07,-81.8564
1.48049e+07,-79.5659
1.48716e+07,-78.586
1.49383e+07,-81.2137
1.5005e+07,-78.903
1.50717e+07,-81.0053
1.51384e+07,-80.6615
1.52051e+07,-79.7281
1.52718e+07,-79.9389
1.53384e+07,-81.3544
1.54051e+07,-80.8642
1.54718e+07,-65.3235
1.55385e+07,-64.769
1.56052e+07,-66.3051
1.56719e+07,-80.3428
1.57386e+07,-80.4085
1.58053e+07,-78.9165
1.5872e+07,-80.4207
1.59386e+07,-79.3399
1.60053e+07,-78.6416
1.6072e+07,-80.1568
1.61387e+07,-80.2864
1.62054e+07,-81.1278
1.62721e+07,-81.1737
1.63388e+07,-80.0569
1.64055e+07,-81.106
1.64722e+07,-80.7192
1.65388e+07,-79.3302
1.66055e+07,-80.2851
1.66722e+07,-80.9779
1.67389e+07,-80.9405
1.68056e+07,-81.1316
1.68723e+07,-80.5791
1.6939e+07,-80.9814
1.70057e+07,-81.769
1.70724e+07,-80.7668
1.7139e+07,-82.2874
1.72057e+07,-83.1078
1.72724e+07,-81.497
1.73391e+07,-80.6708
1.74058e+07,-81.9164
1.74725e+07,-82.4887
1.75392e+07,-80.4926
1.76059e+07,-83.0322
1.76726e+07,-82.3461
1.77392e+07,-82.7475
1.78059e+07,-82.2621
1.78726e+07,-82.7395
1.79393e+07,-82.2314
1.8006e+07,-82.1556
1.80727e+07,-81.5937
1.81394e+07,-83.28
1.82061e+07,-82.8489
1.82728e+07,-83.5348
1.83394e+07,-81.7892
1.84061e+07,-81.2349
1.84728e+07,-82.3929
1.85395e+07,-81.6419
1.86062e+07,-82.1246
1.86729e+07,-83.2645
1.87396e+07,-80.4962
1.88063e+07,-82.5286
1.8873e+07,-81.8538
1.89396e+07,-79.9948
1.90063e+07,-80.8654
1.9073e+07,-80.8536
1.91397e+07,-82.9192
1.92064e+07,-80.7687
1.92731e+07,-81.7783
1.93398e+07,-80.9673
1.94065e+07,-81.6317
1.94732e+07,-82.4485
1.95398e+07,-83.1799
1.96065e+07,-82.5186
1.96732e+07,-82.313
1.97399e+07,-82.2759
1.98066e+07,-83.2403
1.98733e+07,-81.176
1.994e+07,-81.7885
2.00067e+07,-82.5119
2.00734e+07,-81.3272
2.014e+07,-80.8362
2.02067e+07,-82.5508
2.02734e+07,-81.7323
2.03401e+07,-81.9522
2.04068e+07,-82.181
2.04735e+07,-80.3291
2.05402e+07,-81.9726
2.06069e+07,-80.3782
2.06736e+07,-82.1654
2.07402e+07,-81.6845
2.08069e+07,-82.8938
2.08736e+07,-80.0826
2.09403e+07,-78.7972
2.1007e+07,-81.7161
2.10737e+07,-81.8722
2.11404e+07,-80.9085
2.12071e+07,-82.0952
2.12738e+07,-81.2862
2.13404e+07,-80.952
2.14071e+07,-81.2998
2.14738e+07,-81.5486
2.15405e+07,-80.4202
2.16072e+07,-80.0192
2.16739e+07,-80.5838
2.17406e+07,-75.9535
2.18073e+07,-76.8673
2.1874e+07,-77.1084
2.19406e+07,-81.3423
2.20073e+07,-80.2697
2.2074e+07,-79.898
2.21407e+07,-76.6117
2.22074e+07,-76.962
2.22741e+07,-81.3332
2.23408e+07,-81.2143
2.24075e+07,-80.5171
2.24742e+07,-79.6505
2.25408e+07,-78.7335
2.26075e+07,-80.9429
2.26742e+07,-80.9224
2.27409e+07,-81.4155
2.28076e+07,-80.9012
2.28743e+07,-81.8552
2.2941e+07,-80.4204
2.30077e+07,-81.4552
2.30744e+07,-80.454
2.3141e+07,-80.7464
2.32077e+07,-80.7625
2.32744e+07,-81.6174
2.33411e+07,-80.2204
2.34078e+07,-81.8882
2.34745e+07,-81.6525
2.35412e+07,-81.6767
2.36079e+07,-79.8182
2.36746e+07,-81.237
2.37412e+07,-81.0931
2.38079e+07,-81.7395
2.38746e+07,-80.9909
2.39413e+07,-81.7102
2.4008e+07,-79.8521
2.40747e+07,-78.555
2.41414e+07,-77.9783
2.42081e+07,-74.9286
2.42748e+07,-80.97
2.43414e+07,-80.978
2.44081e+07,-80.69
2.44748e+07,-80.2491
2.45415e+07,-81.2259
2.46082e+07,-81.3589
2.46749e+07,-80.1321
2.47416e+07,-78.6227
2.48083e+07,-80.0532
2.4875e+07,-76.6449
2.49416e+07,-74.3181
2.50083e+07,-76.4186
2.5075e+07,-80.1154
2.51417e+07,-80.2904
2.52084e+07,-79.7806
2.52751e+07,-80.239
2.53418e+07,-80.1493
2.54085e+07,-79.4914
2.54752e+07,-80.3058
2.55418e+07,-79.2096
2.56085e+07,-79.2629
2.56752e+07,-77.4102
2.57419e+07,-69.5707
2.58086e+07,-78.7115
2.58753e+07,-77.7913
2.5942e+07,-77.4554
2.60087e+07,-77.9364
2.60754e+07,-78.8068
2.6142e+07,-75.9796
2.62087e+07,-77.2806
2.62754e+07,-77.5833
2.63421e+07,-79.4128
2.64088e+07,-77.13
2.64755e+07,-77.9098
2.65422e+07,-77.1214
2.66089e+07,-75.1755
2.66756e+07,-75.9552
2.67422e+07,-74.5291
2.68089e+07,-76.319
2.68756e+07,-74.4354
2.69423e+07,-74.1961
2.7009e+07,-74.6269
2.70757e+07,-73.2971
2.71424e+07,-69.2379
2.72091e+07,-69.8662
2.72758e+07,-70.3877
2.73424e+07,-70.5162
2.74091e+07,-71.1406
2.74758e+07,-71.1252
2.75425e+07,-72.6031
2.76092e+07,-72.4063
2.76759e+07,-72.9176
2.77426e+07,-72.6771
2.78093e+07,-70.776
2.7876e+07,-69.1268
2.79426e+07,-70.4616
2.80093e+07,-72.6979
2.8076e+07,-67.9851
2.81427e+07,-66.2621
2.82094e+07,-67.4425
2.82761e+07,-72.8181
2.83428e+07,-70.6038
2.84095e+07,-71.6677
2.84762e+07,-70.4334
2.85428e+07,-70.1297
2.86095e+07,-72.4119
2.86762e+07,-71.4368
2.87429e+07,-68.9312
2.88096e+07,-71.2646
2.88763e+07,-66.2615
2.8943e+07,-65.5291
2.90097e+07,-65.7485
2.90764e+07,-69.9273
2.9143e+07,-69.3494
2.92097e+07,-69.9139
2.92764e+07,-66.6981
2.93431e+07,-67.3697
2.94098e+07,-68.9652
2.94765e+07,-68.2462
2.95432e+07,-68.8086
2.96099e+07,-67.1811
2.96766e+07,-66.6162
2.97432e+07,-68.1261
2.98099e+07,-69.6254
2.98766e+07,-68.0784
2.99433e+07,-66.3938
3.001e+07,-67.4894
3.00767e+07,-66.3379
3.01434e+07,-68.0511
3.02101e+07,-68.8166
3.02768e+07,-68.4038
3.03434e+07,-66.2965
3.04101e+07,-64.6848
3.04768e+07,-58.6848
3.05435e+07,-57.2916
3.06102e+07,-58.6499
3.06769e+07,-67.7525
3.07436e+07,-67.1024
3.08103e+07,-66.2969
3.0877e+07,-65.7909
3.09436e+07,-64.7645
3.10103e+07,-64.8095
3.1077e+07,-65.1902
3.11437e+07,-62.6939
3.12104e+07,-65.0178
3.12771e+07,-56.0061
3.13438e+07,-54.7678
3.14105e+07,-54.8223
3.14772e+07,-61.9959
3.15438e+07,-63.1736
3.16105e+07,-61.0897
3.16772e+07,-60.4609
3.17439e+07,-59.8084
3.18106e+07,-59.5295
3.18773e+07,-56.6078
3.1944e+07,-55.2146
3.20107e+07,-60.9143
3.20774e+07,-51.6001
3.2144e+07,-52.3792
3.22107e+07,-55.0206
3.22774e+07,-61.7253
3.23441e+07,-59.7592
3.24108e+07,-60.3124
3.24775e+07,-58.2381
3.25442e+07,-60.4107
3.26109e+07,-61.2001
3.26776e+07,-60.2923
3.27442e+07,-59.8555
3.28109e+07,-58.5811
3.28776e+07,-57.1158
3.29443e+07,-51.4627
3.3011e+07,-60.6615
3.30777e+07,-58.8298
3.31444e+07,-61.7174
3.32111e+07,-58.0617
3.32778e+07,-59.4431
3.33444e+07,-58.7236
3.34111e+07,-59.5347
3.34778e+07,-59.6049
3.35445e+07,-61.1952
3.36112e+07,-56.7059
3.36779e+07,-58.9955
3.37446e+07,-61.3864
3.38113e+07,-59.7557
3.3878e+07,-61.9067
3.39446e+07,-59.1108
3.40113e+07,-61.5843
3.4078e+07,-61.1476
3.41447e+07,-61.2967
3.42114e+07,-60.5276
3.42781e+07,-61.9786
3.43448e+07,-59.5264
3.44115e+07,-58.0306
3.44782e+07,-52.8993
3.45448e+07,-53.3477
3.46115e+07,-55.6874
3.46782e+07,-61.1558
3.47449e+07,-59.336
3.48116e+07,-60.757
3.48783e+07,-58.7473
3.4945e+07,-60.447
3.50117e+07,-60.1186
3.50784e+07,-62.0274
3.5145e+07,-60.8046
3.52117e+07,-60.08
3.52784e+07,-59.6357
3.53451e+07,-60.7238
3.54118e+07,-59.71
3.54785e+07,-59.8776
3.55452e+07,-59.5386
3.56119e+07,-58.8197
3.56786e+07,-59.3886
3.57452e+07,-60.7305
3.58119e+07,-59.4231
3.58786e+07,-57.0413
3.59453e+07,-54.9436
3.6012e+07,-58.7589
3.60787e+07,-57.7841
3.61454e+07,-55.3314
3.62121e+07,-55.2311
3.62788e+07,-56.6857
3.63454e+07,-56.0158
3.64121e+07,-55.2779
3.64788e+07,-54.091
3.65455e+07,-54.6963
3.66122e+07,-55.4112
3.66789e+07,-54.7157
3.67456e+07,-54.6356
3.68123e+07,-53.8152
3.6879e+07,-55.3696
3.69456e+07,-53.7231
3.70123e+07,-52.3902
3.7079e+07,-53.2659
3.71457e+07,-57.0698
3.72124e+07,-57.103
3.72791e+07,-57.0289
3.73458e+07,-56.7587
3.74125e+07,-57.6882
3.74792e+07,-59.017
3.75458e+07,-57.7446
3.76125e+07,-59.8124
3.76792e+07,-57.4797
3.77459e+07,-58.6092
3.78126e+07,-58.9407
3.78793e+07,-59.8206
3.7946e+07,-58.3176
3.80127e+07,-61.0458
3.80794e+07,-59.1424
3.8146e+07,-60.5931
3.82127e+07,-59.6554
3.82794e+07,-60.6678
3.83461e+07,-59.513
3.84128e+07,-60.2794
3.84795e+07,-59.9777
3.85462e+07,-59.1065
3.86129e+07,-57.9261
3.86796e+07,-58.6541
3.87462e+07,-58.3549
3.88129e+07,-58.9304
3.88796e+07,-59.4316
3.89463e+07,-59.8143
3.9013e+07,-60.0015
3.90797e+07,-58.7125
3.91464e+07,-59.1824
3.92131e+07,-59.7212
3.92798e+07,-59.0091
3.93464e+07,-59.3415
3.94131e+07,-60.1758
3.94798e+07,-59.6542
3.95465e+07,-59.4166
3.96132e+07,-60.0891
3.96799e+07,-58.7252
3.97466e+07,-60.345
3.98133e+07,-59.2624
3.988e+07,-58.6346
3.99466e+07,-57.889
4.00133e+07,-58.7059
4.008e+07,-56.7824
4.01467e+07,-57.338
4.02134e+07,-58.478
4.02801e+07,-57.0741
4.03468e+07,-57.4203
4.04135e+07,-57.9951
4.04802e+07,-56.0708
4.05468e+07,-55.2642
4.06135e+07,-56.0713
4.06802e+07,-55.2733
4.07469e+07,-55.7818
4.08136e+07,-56.1495
4.08803e+07,-55.2156
4.0947e+07,-51.509
4.10137e+07,-48.7233
4.10804e+07,-54.8247
4.1147e+07,-55.7244
4.12137e+07,-55.9328
4.12804e+07,-55.5169
4.13471e+07,-53.511
4.14138e+07,-56.4964
4.14805e+07,-54.7843
4.15472e+07,-55.1005
4.16139e+07,-55.1937
4.16806e+07,-54.272
4.17472e+07,-54.1379
4.18139e+07,-55.503
4.18806e+07,-53.2501
4.19473e+07,-53.4304
4.2014e+07,-54.0341
4.20807e+07,-54.7616
4.21474e+07,-55.0971
4.22141e+07,-53.8297
4.22808e+07,-54.1884
4.23474e+07,-55.677
4.24141e+07,-52.8061
4.24808e+07,-53.8622
4.25475e+07,-53.3936
4.26142e+07,-53.7968
4.26809e+07,-54.4865
4.27476e+07,-54.2084
4.28143e+07,-53.9457
4.2881e+07,-52.6484
4.29476e+07,-54.7773
4.30143e+07,-55.2844
4.3081e+07,-55.5969
4.31477e+07,-58.9038
4.32144e+07,-54.7638
4.32811e+07,-55.3178
4.33478e+07,-54.224
4.34145e+07,-55.0375
4.34812e+07,-55.0024
4.35478e+07,-52.8691
4.36145e+07,-53.6562
4.36812e+07,-56.5615
4.37479e+07,-54.1169
4.38146e+07,-54.457
4.38813e+07,-52.5213
4.3948e+07,-52.4511
4.40147e+07,-52.5084
4.40814e+07,-52.5871
4.4148e+07,-51.4506
4.42147e+07,-53.5624
4.42814e+07,-56.1702
4.43481e+07,-55.4286
4.44148e+07,-59.2105
4.44815e+07,-58.8419
4.45482e+07,-57.953
4.46149e+07,-58.0419
4.46816e+07,-57.7431
4.47482e+07,-57.489
4.48149e+07,-58.1273
4.48816e+07,-57.1692
4.49483e+07,-56.0855
4.5015e+07,-53.6749
4.50817e+07,-53.5987
4.51484e+07,-54.6364
4.52151e+07,-53.043
4.52818e+07,-51.3806
4.53484e+07,-51.9033
4.54151e+07,-54.1339
4.54818e+07,-53.6223
4.55485e+07,-52.8192
4.56152e+07,-53.3362
4.56819e+07,-55.033
4.57486e+07,-53.4137
4.58153e+07,-53.5207
4.5882e+07,-54.103
4.59486e+07,-56.1561
4.60153e+07,-55.091
4.6082e+07,-54.5976
4.61487e+07,-53.4967
4.62154e+07,-54.748
4.62821e+07,-54.5623
4.63488e+07,-55.1925
4.64155e+07,-55.6601
4.64822e+07,-55.2565
4.65488e+07,-57.3946
4.66155e+07,-56.2825
4.66822e+07,-56.9072
4.67489e+07,-56.599
4.68156e+07,-57.9013
4.68823e+07,-56.3682
4.6949e+07,-56.6563
4.70157e+07,-56.1298
4.70824e+07,-58.3071
4.7149e+07,-56.7611
4.72157e+07,-56.8059
4.72824e+07,-57.5773
4.73491e+07,-57.6023
4.74158e+07,-58.0769
4.74825e+07,-57.0912
4.75492e+07,-57.5198
4.76159e+07,-56.857
4.76826e+07,-57.7373
4.77492e+07,-56.5986
4.78159e+07,-56.1488
4.78826e+07,-55.72
4.79493e+07,-55.9614
4.8016e+07,-54.7319
4.80827e+07,-55.2602
4.81494e+07,-54.8626
4.82161e+07,-55.1216
4.82828e+07,-54.5608
4.83494e+07,-53.862
4.84161e+07,-54.2242
4.84828e+07,-52.4376
4.85495e+07,-52.9469
4.86162e+07,-51.7629
4.86829e+07,-52.0341
4.87496e+07,-52.1303
4.88163e+07,-52.9607
4.8883e+07,-51.1443
4.89496e+07,-51.8279
4.90163e+07,-50.3581
4.9083e+07,-52.4608
4.91497e+07,-51.0718
4.92164e+07,-50.1657
4.92831e+07,-50.9572
4.93498e+07,-51.2045
4.94165e+07,-50.3013
4.94832e+07,-50.3916
4.95498e+07,-50.6671
4.96165e+07,-49.8852
4.96832e+07,-53.4729
4.97499e+07,-50.8096
4.98166e+07,-50.0574
4.98833e+07,-50.3822
4.995e+07,-54.4976
5.00167e+07,-50.6741
5.00834e+07,-51.5457
5.01501e+07,-51.1549
5.02167e+07,-54.4303
5.02834e+07,-50.7159
5.03501e+07,-50.7518
5.04168e+07,-51.511
5.04835e+07,-52.0613
5.05502e+07,-47.7878
5.06169e+07,-46.0535
5.06836e+07,-48.7252
5.07503e+07,-52.2853
5.08169e+07,-53.2201
5.08836e+07,-54.2419
5.09503e+07,-52.8499
5.1017e+07,-53.4657
5.10837e+07,-52.6919
5.11504e+07,-53.9751
5.12171e+07,-53.2088
5.12838e+07,-54.152
5.13505e+07,-53.2525
5.14171e+07,-52.5962
5.14838e+07,-54.3645
5.15505e+07,-55.4035
5.16172e+07,-54.2484
5.16839e+07,-55.4564
5.17506e+07,-54.7239
5.18173e+07,-53.7878
5.1884e+07,-55.6574
5.19507e+07,-55.681
5.20173e+07,-54.3758
5.2084e+07,-54.5477
5.21507e+07,-47.8034
5.22174e+07,-47.0291
5.22841e+07,-56.7827
5.23508e+07,-54.4279
5.24175e+07,-56.0115
5.24842e+07,-56.4678
5.25509e+07,-56.4014
5.26175e+07,-57.8601
5.26842e+07,-56.5094
5.27509e+07,-56.3511
5.28176e+07,-56.9661
5.28843e+07,-51.7987
5.2951e+07,-45.8442
5.30177e+07,-46.716
5.30844e+07,-46.4653
5.31511e+07,-57.3483
5.32177e+07,-56.8444
5.32844e+07,-57.8632
5.33511e+07,-58.0314
5.34178e+07,-56.054
5.34845e+07,-56.8404
5.35512e+07,-55.2562
5.36179e+07,-52.8942
5.36846e+07,-45.3574
5.37513e+07,-44.5754
5.38179e+07,-43.9189
5.38846e+07,-44.2303
5.39513e+07,-54.658
5.4018e+07,-55.9473
5.40847e+07,-56.5454
5.41514e+07,-56.5279
5.42181e+07,-58.9275
5.42848e+07,-59.1268
5.43515e+07,-58.3792
5.44181e+07,-56.1425
5.44848e+07,-43.5873
5.45515e+07,-42.1467
5.46182e+07,-42.4595
5.46849e+07,-43.2388
5.47516e+07,-56.2738
5.48183e+07,-56.3456
5.4885e+07,-58.4305
5.49517e+07,-58.9702
5.50183e+07,-59.197
5.5085e+07,-59.4258
5.51517e+07,-58.9467
5.52184e+07,-58.3721
5.52851e+07,-55.2489
5.53518e+07,-52.6808
5.54185e+07,-55.7557
5.54852e+07,-53.6204
5.55519e+07,-51.7986
5.56185e+07,-49.7373
5.56852e+07,-49.8223
5.57519e+07,-47.2071
5.58186e+07,-47.6976
5.58853e+07,-47.9325
5.5952e+07,-46.7542
5.60187e+07,-45.0822
5.60854e+07,-46.1592
5.61521e+07,-44.8539
5.62187e+07,-45.6738
5.62854e+07,-47.2079
5.63521e+07,-43.7612
5.64188e+07,-44.6478
5.64855e+07,-42.435
5.65522e+07,-43.8035
5.66189e+07,-43.054
5.66856e+07,-42.9802
5.67523e+07,-44.5697
5.68189e+07,-43.4305
5.68856e+07,-43.2707
5.69523e+07,-43.4819
5.7019e+07,-40.2774
5.70857e+07,-43.325
5.71524e+07,-40.7419
5.72191e+07,-41.4076
5.72858e+07,-41.3836
5.73525e+07,-41.0299
5.74191e+07,-40.8421
5.74858e+07,-41.0377
5.75525e+07,-41.0693
5.76192e+07,-41.7424
5.76859e+07,-42.3991
5.77526e+07,-41.3208
5.78193e+07,-41.8082
5.7886e+07,-41.2771
5.79527e+07,-44.0612
5.80193e+07,-43.8684
5.8086e+07,-43.4943
5.81527e+07,-44.6094
5.82194e+07,-44.584
5.82861e+07,-43.3478
5.83528e+07,-43.3495
5.84195e+07,-44.5747
5.84862e+07,-42.0189
5.85529e+07,-42.0473
5.86195e+07,-43.0081
5.86862e+07,-42.8761
5.87529e+07,-43.1619
5.88196e+07,-40.8255
5.88863e+07,-41.2031
5.8953e+07,-41.4807
5.90197e+07,-41.1615
5.90864e+07,-39.3297
5.91531e+07,-40.7225
5.92197e+07,-41.5862
5.92864e+07,-41.3669
5.93531e+07,-39.0829
5.94198e+07,-37.6274
5.94865e+07,-42.0871
5.95532e+07,-40.3389
5.96199e+07,-42.2694
5.96866e+07,-41.1445
5.97533e+07,-40.0278
5.98199e+07,-40.9967
5.98866e+07,-41.2661
5.99533e+07,-42.3959
6.002e+07,-41.0254
6.00867e+07,-39.368
6.01534e+07,-37.6283
6.02201e+07,-40.1084
6.02868e+07,-41.8783
6.03535e+07,-39.7425
6.04201e+07,-39.8719
6.04868e+07,-42.1394
6.05535e+07,-41.4503
6.06202e+07,-40.7287
6.06869e+07,-40.7593
6.07536e+07,-39.895
6.08203e+07,-41.1329
6.0887e+07,-38.5289
6.09537e+07,-40.143
6.10203e+07,-38.4801
6.1087e+07,-39.4354
6.11537e+07,-40.9516
6.12204e+07,-41.4548
6.12871e+07,-41.3879
6.13538e+07,-42.5171
6.14205e+07,-41.9042
6.14872e+07,-40.8764
6.15539e+07,-40.9469
6.16205e+07,-42.7454
6.16872e+07,-41.2272
6.17539e+07,-40.9774
6.18206e+07,-42.6484
6.18873e+07,-43.9359
6.1954e+07,-43.2728
6.20207e+07,-43.7751
6.20874e+07,-44.5003
6.21541e+07,-42.7192
6.22207e+07,-44.3652
6.22874e+07,-44.1458
6.23541e+07,-43.4199
6.24208e+07,-43.7238
6.24875e+07,-43.5521
6.25542e+07,-42.4561
6.26209e+07,-42.8531
6.26876e+07,-42.7885
6.27543e+07,-42.7027
6.28209e+07,-44.8467
6.28876e+07,-44.9443
6.29543e+07,-45.9362
6.3021e+07,-46.4718
6.30877e+07,-44.963
6.31544e+07,-47.3962
6.32211e+07,-45.9701
6.32878e+07,-46.6165
6.33545e+07,-44.8239
6.34211e+07,-44.8914
6.34878e+07,-47.4665
6.35545e+07,-46.1221
6.36212e+07,-47.4579
6.36879e+07,-49.8345
6.37546e+07,-48.505
6.38213e+07,-46.0634
6.3888e+07,-43.5403
6.39547e+07,-50.2884
6.40213e+07,-48.8123
6.4088e+07,-50.8804
6.41547e+07,-50.0954
6.42214e+07,-50.7657
6.42881e+07,-50.9142
6.43548e+07,-51.2679
6.44215e+07,-52.2672
6.44882e+07,-49.6224
6.45549e+07,-52.0522
6.46215e+07,-52.4663
6.46882e+07,-51.3471
6.47549e+07,-53.0681
6.48216e+07,-52.4037
6.48883e+07,-52.848
6.4955e+07,-52.8746
6.50217e+07,-53.5729
6.50884e+07,-52.8469
6.51551e+07,-52.8493
6.52217e+07,-53.4643
6.52884e+07,-54.9472
6.53551e+07,-54.2055
6.54218e+07,-53.2627
6.54885e+07,-53.5475
6.55552e+07,-54.286
6.56219e+07,-57.9029
6.56886e+07,-56.8245
6.57553e+07,-57.3706
6.58219e+07,-55.7846
6.58886e+07,-53.4274
6.59553e+07,-54.3849
6.6022e+07,-48.2131
6.60887e+07,-40.8935
6.61554e+07,-37.9386
6.62221e+07,-35.9323
6.62888e+07,-23.3081
6.63555e+07,-34.16
6.64221e+07,-34.2149
6.64888e+07,-33.8293
6.65555e+07,-34.8867
6.66222e+07,-36.2034
6.66889e+07,-36.7171
6.67556e+07,-38.7288
6.68223e+07,-34.6425
6.6889e+07,-36.3527
6.69557e+07,-35.9935
6.70223e+07,-35.7324
6.7089e+07,-37.3032
6.71557e+07,-34.7674
6.72224e+07,-36.6811
6.72891e+07,-36.4815
6.73558e+07,-35.9645
6.74225e+07,-38.7835
6.74892e+07,-40.7496
6.75559e+07,-39.2771
6.76225e+07,-38.6164
6.76892e+07,-40.5551
6.77559e+07,-40.7975
6.78226e+07,-37.633
6.78893e+07,-37.9873
6.7956e+07,-37.3773
6.80227e+07,-40.0258
6.80894e+07,-42.3087
6.81561e+07,-43.9057
6.82227e+07,-43.8537
6.82894e+07,-42.9494
6.83561e+07,-43.9225
6.84228e+07,-45.4705
6.84895e+07,-35.5289
6.85562e+07,-44.8397
6.86229e+07,-42.813
6.86896e+07,-45.6086
6.87563e+07,-46.971
6.88229e+07,-46.1298
6.88896e+07,-47.7597
6.89563e+07,-46.7102
6.9023e+07,-46.1627
6.90897e+07,-39.0427
6.91564e+07,-39.5191
6.92231e+07,-40.2314
6.92898e+07,-46.3897
6.93565e+07,-46.9726
6.94231e+07,-46.4329
6.94898e+07,-46.9707
6.95565e+07,-39.8544
6.96232e+07,-17.334
6.96899e+07,-41.1746
6.97566e+07,-44.9595
6.98233e+07,-44.8502
6.989e+07,-44.1501
6.99567e+07,-39.6295
7.00233e+07,-44.417
7.009e+07,-33.2921
7.01567e+07,-44.6751
7.02234e+07,-41.2018
7.02901e+07,-40.6795
7.03568e+07,-44.8138
7.04235e+07,-47.649
7.04902e+07,-45.1247
7.05569e+07,-46.0336
7.06235e+07,-46.472
7.06902e+07,-37.6154
7.07569e+07,-46.3457
7.08236e+07,-45.801
7.08903e+07,-44.9912
7.0957e+07,-29.5556
7.10237e+07,-40.1394
7.10904e+07,-47.466
7.11571e+07,-46.1293
7.12237e+07,-43.6749
7.12904e+07,-42.8685
7.13571e+07,-43.7009
7.14238e+07,-44.3134
7.14905e+07,-45.592
7.15572e+07,-45.1949
7.16239e+07,-45.4596
7.16906e+07,-44.8022
7.17573e+07,-43.7306
7.18239e+07,-34.4211
7.18906e+07,-47.5423
7.19573e+07,-47.898
7.2024e+07,-47.235
7.20907e+07,-48.5576
7.21574e+07,-47.5676
7.22241e+07,-48.5231
7.22908e+07,-49.0482
7.23575e+07,-49.4935
7.24241e+07,-49.3229
7.24908e+07,-48.5116
7.25575e+07,-50.5016
7.26242e+07,-42.4408
7.26909e+07,-49.1278
7.27576e+07,-50.6021
7.28243e+07,-41.181
7.2891e+07,-12.9634
7.29577e+07,-9.22393
7.30243e+07,-45.8344
7.3091e+07,-45.5925
7.31577e+07,-49.1498
7.32244e+07,-49.8811
7.32911e+07,-49.3497
7.33578e+07,-50.1795
7.34245e+07,-51.1947
7.34912e+07,-47.5334
7.35579e+07,-40.1459
7.36245e+07,-50.8091
7.36912e+07,-32.3928
7.37579e+07,-50.5556
7.38246e+07,-50.1475
7.38913e+07,-47.4941
7.3958e+07,-49.6949
7.40247e+07,-47.4967
7.40914e+07,-47.8175
7.41581e+07,-48.7574
7.42247e+07,-49.8028
7.42914e+07,-49.8138
7.43581e+07,-45.425
7.44248e+07,-48.7523
7.44915e+07,-50.0758
7.45582e+07,-49.969
7.46249e+07,-39.1382
7.46916e+07,-49.0306
7.47583e+07,-50.593
7.48249e+07,-49.397
7.48916e+07,-46.0171
7.49583e+07,-47.45
7.5025e+07,-46.9193
7.50917e+07,-48.9305
7.51584e+07,-49.8802
7.52251e+07,-51.1507
7.52918e+07,-49.7897
7.53585e+07,-51.6846
7.54251e+07,-51.2642
7.54918e+07,-48.9551
7.55585e+07,-48.4504
7.56252e+07,-27.8791
7.56919e+07,-49.2415
7.57586e+07,-48.5112
7.58253e+07,-43.6372
7.5892e+07,-48.0375
7.59587e+07,-37.1925
7.60253e+07,-45.4821
7.6092e+07,-45.531
7.61587e+07,-42.4935
7.62254e+07,-48.0993
7.62921e+07,-40.1982
7.63588e+07,-48.3666
7.64255e+07,-49.2321
7.64922e+07,-29.4724
7.65589e+07,-50.9644
7.66255e+07,-50.7516
7.66922e+07,-51.4741
7.67589e+07,-50.1079
7.68256e+07,-50.7393
7.68923e+07,-46.3368
7.6959e+07,-26.4867
7.70257e+07,-39.3797
7.70924e+07,-51.2344
7.71591e+07,-43.2776
7.72257e+07,-51.6025
7.72924e+07,-46.1801
7.73591e+07,-52.459
7.74258e+07,-49.5537
7.74925e+07,-48.7062
7.75592e+07,-50.2544
7.76259e+07,-43.5185
7.76926e+07,-47.6792
7.77593e+07,-33.2258
7.78259e+07,-50.354
7.78926e+07,-34.7606
7.79593e+07,-48.67
7.8026e+07,-48.0135
7.80927e+07,-50.9935
7.81594e+07,-51.7835
7.82261e+07,-50.8105
7.82928e+07,-51.0619
7.83595e+07,-47.3392
7.84261e+07,-42.9098
7.84928e+07,-39.8716
7.85595e+07,-42.1214
7.86262e+07,-40.5963
7.86929e+07,-47.5852
7.87596e+07,-37.9719
7.88263e+07,-51.2244
7.8893e+07,-51.2534
7.89597e+07,-32.2438
7.90263e+07,-47.3577
7.9093e+07,-51.9238
7.91597e+07,-41.1658
7.92264e+07,-48.2136
7.92931e+07,-33.1671
7.93598e+07,-48.5337
7.94265e+07,-48.763
7.94932e+07,-30.3021
7.95599e+07,-47.1615
7.96265e+07,-49.1658
7.96932e+07,-49.2484
7.97599e+07,-48.5281
7.98266e+07,-47.2065
7.98933e+07,-48.7401
7.996e+07,-49.0471
8.00267e+07,-48.9616
8.00934e+07,-50.347
8.01601e+07,-50.7098
8.02267e+07,-49.0264
8.02934e+07,-51.134
8.03601e+07,-48.9863
8.04268e+07,-49.5777
8.04935e+07,-48.1177
8.05602e+07,-51.1991
8.06269e+07,-51.5541
8.06936e+07,-52.5354
8.07603e+07,-50.0318
8.08269e+07,-49.7085
8.08936e+07,-50.8064
8.09603e+07,-51.0385
8.1027e+07,-51.1912
8.10937e+07,-49.8464
8.11604e+07,-50.4699
8.12271e+07,-51.5226
8.12938e+07,-50.3674
8.13605e+07,-51.9713
8.14271e+07,-53.3345
8.14938e+07,-53.4055
8.15605e+07,-54.2698
8.16272e+07,-53.4044
8.16939e+07,-53.0611
8.17606e+07,-53.0877
8.18273e+07,-54.8844
8.1894e+07,-54.1861
8.19607e+07,-48.3371
8.20273e+07,-41.1008
8.2094e+07,-54.2746
8.21607e+07,-54.1697
8.22274e+07,-53.8133
8.22941e+07,-54.2554
8.23608e+07,-53.4291
8.24275e+07,-53.1286
8.24942e+07,-53.3823
8.25609e+07,-54.6833
8.26275e+07,-55.1756
8.26942e+07,-52.9728
8.27609e+07,-54.1744
8.28276e+07,-52.6196
8.28943e+07,-52.428
8.2961e+07,-52.4743
8.30277e+07,-49.0082
8.30944e+07,-47.7849
8.31611e+07,-43.0469
8.32277e+07,-22.4925
8.32944e+07,-41.0287
8.33611e+07,-48.792
8.34278e+07,-50.6688
8.34945e+07,-50.0303
8.35612e+07,-51.6028
8.36279e+07,-49.1163
8.36946e+07,-49.6543
8.37613e+07,-54.3692
8.38279e+07,-55.3657
8.38946e+07,-53.9986
8.39613e+07,-55.3385
8.4028e+07,-55.4799
8.40947e+07,-55.9809
8.41614e+07,-56.933
8.42281e+07,-52.7183
8.42948e+07,-53.8463
8.43615e+07,-52.3753
8.44281e+07,-52.6671
8.44948e+07,-53.3084
8.45615e+07,-56.7145
8.46282e+07,-53.7616
8.46949e+07,-56.096
8.47616e+07,-57.6868
8.48283e+07,-56.8261
8.4895e+07,-54.7852
8.49617e+07,-56.3472
8.50283e+07,-53.321
8.5095e+07,-56.8616
8.51617e+07,-58.2653
8.52284e+07,-57.3715
8.52951e+07,-56.4337
8.53618e+07,-54.8038
8.54285e+07,-56.1207
8.54952e+07,-57.1187
8.55619e+07,-56.6657
8.56285e+07,-56.2217
8.56952e+07,-56.3325
8.57619e+07,-56.0524
8.58286e+07,-58.8272
8.58953e+07,-58.7332
8.5962e+07,-57.8262
8.60287e+07,-59.4688
8.60954e+07,-59.4898
8.61621e+07,-60.2947
8.62287e+07,-60.2156
8.62954e+07,-61.8039
8.63621e+07,-63.4028
8.64288e+07,-63.1629
8.64955e+07,-62.1834
8.65622e+07,-62.233
8.66289e+07,-63.9321
8.66956e+07,-64.597
8.67623e+07,-64.3931
8.68289e+07,-55.7444
8.68956e+07,-66.9462
8.69623e+07,-66.9912
8.7029e+07,-67.1051
8.70957e+07,-68.9302
8.71624e+07,-69.1063
8.72291e+07,-65.8662
8.72958e+07,-67.8723
8.73625e+07,-68.3711
8.74291e+07,-68.3464
8.74958e+07,-68.1068
8.75625e+07,-67.3049
8.76292e+07,-58.4788
8.76959e+07,-50.4352
8.77626e+07,-47.8708
8.78293e+07,-52.5576
8.7896e+07,-70.0602
8.79627e+07,-68.9237
8.80293e+07,-59.291
8.8096e+07,-60.451
8.81627e+07,-61.2565
8.82294e+07,-67.5371
8.82961e+07,-67.2447
8.83628e+07,-56.942
8.84295e+07,-21.4711
8.84962e+07,-21.5371
8.85629e+07,-21.9684
8.86295e+07,-60.0846
8.86962e+07,-68.9433
8.87629e+07,-71.1736
8.88296e+07,-66.913
8.88963e+07,-64.698
8.8963e+07,-69.085
8.90297e+07,-71.3057
8.90964e+07,-70.764
8.91631e+07,-72.104
8.92297e+07,-68.7612
8.92964e+07,-65.626
8.93631e+07,-68.8503
8.94298e+07,-59.4607
8.94965e+07,-58.1467
8.95632e+07,-57.9827
8.96299e+07,-71.6995
8.96966e+07,-71.8416
8.97633e+07,-72.5707
8.98299e+07,-71.676
8.98966e+07,-65.8467
8.99633e+07,-74.0167
9.003e+07,-67.287
9.00967e+07,-64.3442
9.01634e+07,-68.9889
9.02301e+07,-77.5475
9.02968e+07,-77.248
9.03635e+07,-76.88
9.04301e+07,-73.903
9.04968e+07,-72.6431
9.05635e+07,-72.894
9.06302e+07,-80.3458
9.06969e+07,-79.9324
9.07636e+07,-79.4274
9.08303e+07,-77.2838
9.0897e+07,-75.0262
9.09637e+07,-79.7563
9.10303e+07,-78.3893
9.1097e+07,-76.4112
9.11637e+07,-75.0581
9.12304e+07,-71.6342
9.12971e+07,-71.4157
9.13638e+07,-71.2911
9.14305e+07,-76.3529
9.14972e+07,-63.7346
9.15639e+07,-66.222
9.16305e+07,-77.1471
9.16972e+07,-75.6007
9.17639e+07,-71.7465
9.18306e+07,-71.4615
9.18973e+07,-72.419
9.1964e+07,-75.5938
9.20307e+07,-73.8479
9.20974e+07,-73.3916
9.21641e+07,-74.1464
9.22307e+07,-66.4307
9.22974e+07,-66.1752
9.23641e+07,-66.3182
9.24308e+07,-76.4573
9.24975e+07,-77.1327
9.25642e+07,-76.181
9.26309e+07,-76.4015
9.26976e+07,-74.9682
9.27643e+07,-78.1879
9.28309e+07,-75.6235
9.28976e+07,-74.6599
9.29643e+07,-76.6722
9.3031e+07,-69.5586
9.30977e+07,-69.8139
9.31644e+07,-72.2838
9.32311e+07,-73.6777
9.32978e+07,-75.2468
9.33645e+07,-76.3924
9.34311e+07,-74.5371
9.34978e+07,-72.4412
9.35645e+07,-65.9077
9.36312e+07,-74.4702
9.36979e+07,-73.0454
9.37646e+07,-76.2907
9.38313e+07,-72.4193
9.3898e+07,-72.7899
9.39647e+07,-74.7619
9.40313e+07,-76.5458
9.4098e+07,-76.4303
9.41647e+07,-75.9226
9.42314e+07,-76.1439
9.42981e+07,-74.9623
9.43648e+07,-76.288
9.44315e+07,-75.8541
9.44982e+07,-75.9184
9.45649e+07,-74.7499
9.46315e+07,-74.3935
9.46982e+07,-75.5469
9.47649e+07,-75.4779
9.48316e+07,-76.313
9.48983e+07,-75.9171
9.4965e+07,-76.3912
9.50317e+07,-72.9075
9.50984e+07,-66.0921
9.51651e+07,-67.346
9.52317e+07,-74.638
9.52984e+07,-76.8887
9.53651e+07,-78.307
9.54318e+07,-79.9839
9.54985e+07,-79.1699
9.55652e+07,-79.7936
9.56319e+07,-78.1332
9.56986e+07,-78.5073
9.57653e+07,-79.6253
9.58319e+07,-80.3836
9.58986e+07,-80.3517
9.59653e+07,-79.5845
9.6032e+07,-78.0993
9.60987e+07,-79.0125
9.61654e+07,-79.7305
9.62321e+07,-79.3786
9.62988e+07,-78.2977
9.63655e+07,-78.3175
9.64321e+07,-79.5575
9.64988e+07,-78.8448
9.65655e+07,-79.0041
9.66322e+07,-79.8339
9.66989e+07,-80.8962
9.67656e+07,-79.3389
9.68323e+07,-79.7069
9.6899e+07,-80.1106
9.69657e+07,-80.7167
9.70323e+07,-80.9119
9.7099e+07,-74.7713
9.71657e+07,-73.761
9.72324e+07,-78.4912
9.72991e+07,-78.9522
9.73658e+07,-80.4584
9.74325e+07,-79.9661
9.74992e+07,-79.0215
9.75659e+07,-79.6538
9.76325e+07,-81.0672
9.76992e+07,-80.5841
9.77659e+07,-80.9522
9.78326e+07,-76.4403
9.78993e+07,-76.0953
9.7966e+07,-76.302
9.80327e+07,-80.3671
9.80994e+07,-81.8897
9.81661e+07,-81.7639
9.82327e+07,-80.9334
9.82994e+07,-83.0705
9.83661e+07,-81.426
9.84328e+07,-81.843
9.84995e+07,-80.9375
9.85662e+07,-80.601
9.86329e+07,-80.9948
9.86996e+07,-74.057
9.87663e+07,-68.0422
9.88329e+07,-67.5538
9.88996e+07,-77.1377
9.89663e+07,-80.8458
9.9033e+07,-79.8969
9.90997e+07,-81.9852
9.91664e+07,-81.0062
9.92331e+07,-81.1613
9.92998e+07,-80.3977
9.93665e+07,-81.9625
9.94331e+07,-79.7059
9.94998e+07,-80.7514
9.95665e+07,-81.7198
9.96332e+07,-82.0505
9.96999e+07,-81.3067
9.97666e+07,-80.7734
9.98333e+07,-81.5717
9.99e+07,-81.1563
9.99667e+07,-81.4496
1.00033e+08,-80.9505
1.001e+08,-81.5993
1.00167e+08,-80.6837
1.00233e+08,-80.9797
1.003e+08,-80.1435
1.00367e+08,-81.7642
1.00433e+08,-80.9444
1.005e+08,-81.0955
1.00567e+08,-80.2995
1.00634e+08,-80.0603
1.007e+08,-80.8267
1.00767e+08,-81.5613
1.00834e+08,-80.966
1.009e+08,-80.5717
1.00967e+08,-82.5714
1.01034e+08,-80.6179
1.011e+08,-81.1222
1.01167e+08,-81.7953
1.01234e+08,-80.9568
1.013e+08,-80.795
1.01367e+08,-79.4944
1.01434e+08,-80.6563
1.01501e+08,-79.9273
1.01567e+08,-81.0718
1.01634e+08,-81.0994
1.01701e+08,-81.5972
1.01767e+08,-82.0205
1.01834e+08,-78.482
1.01901e+08,-78.5604
1.01967e+08,-78.9074
1.02034e+08,-82.0012
1.02101e+08,-81.9902
1.02167e+08,-81.3073
1.02234e+08,-81.5273
1.02301e+08,-80.8876
1.02367e+08,-81.9779
1.02434e+08,-80.9171
1.02501e+08,-80.6157
1.02568e+08,-81.6272
1.02634e+08,-82.3288
1.02701e+08,-81.9961
1.02768e+08,-80.9915
1.02834e+08,-81.6585
1.02901e+08,-81.1243
1.02968e+08,-82.348
1.03034e+08,-82.2434
1.03101e+08,-80.9182
1.03168e+08,-82.314
1.03234e+08,-81.5329
1.03301e+08,-81.2033
1.03368e+08,-79.4483
1.03434e+08,-65.1199
1.03501e+08,-63.6603
1.03568e+08,-62.1764
1.03635e+08,-78.9265
1.03701e+08,-78.8629
1.03768e+08,-80.5267
1.03835e+08,-81.5416
1.03901e+08,-76.8317
1.03968e+08,-70.3909
1.04035e+08,-71.2773
1.04101e+08,-69.4893
1.04168e+08,-68.2248
1.04235e+08,-54.0135
1.04301e+08,-54.1394
1.04368e+08,-53.5283
1.04435e+08,-63.6214
1.04502e+08,-64.6308
1.04568e+08,-80.5295
1.04635e+08,-80.9528
1.04702e+08,-70.1986
1.04768e+08,-82.1486
1.04835e+08,-82.5164
1.04902e+08,-77.0611
1.04968e+08,-72.0501
1.05035e+08,-47.815
1.05102e+08,-47.5432
1.05168e+08,-47.7351
1.05235e+08,-68.5925
1.05302e+08,-80.483
1.05368e+08,-81.037
1.05435e+08,-70.9522
1.05502e+08,-69.7801
1.05569e+08,-74.4648
1.05635e+08,-81.799
1.05702e+08,-63.476
1.05769e+08,-63.1257
1.05835e+08,-44.1614
1.05902e+08,-43.2419
1.05969e+08,-47.3462
1.06035e+08,-64.9081
1.06102e+08,-64.21
1.06169e+08,-70.5086
1.06235e+08,-54.6837
1.06302e+08,-54.1453
1.06369e+08,-55.3687
1.06435e+08,-70.1597
1.06502e+08,-69.0631
1.06569e+08,-79.7511
1.06636e+08,-60.8959
1.06702e+08,-61.7893
1.06769e+08,-63.6026
1.06836e+08,-81.4599
1.06902e+08,-79.5049
1.06969e+08,-83.1313
1.07036e+08,-69.264
1.07102e+08,-69.2234
1.07169e+08,-70.0744
1.07236e+08,-82.539
1.07302e+08,-68.1877
1.07369e+08,-69.418
1.07436e+08,-47.0848
1.07503e+08,-45.0886
1.07569e+08,-68.0281
1.07636e+08,-68.6475
1.07703e+08,-68.6485
1.07769e+08,-74.6522
1.07836e+08,-55.3812
1.07903e+08,-56.4849
1.07969e+08,-58.3053
1.08036e+08,-75.4927
1.08103e+08,-73.3933
1.08169e+08,-81.4303
1.08236e+08,-81.2745
1.08303e+08,-81.3093
1.08369e+08,-81.3314
1.08436e+08,-81.2155
1.08503e+08,-80.9206
1.0857e+08,-82.7277
1.08636e+08,-80.9504
1.08703e+08,-81.5181
1.0877e+08,-82.4537
1.08836e+08,-80.7715
1.08903e+08,-81.9011
1.0897e+08,-80.6982
1.09036e+08,-80.2074
1.09103e+08,-81.1217
1.0917e+08,-81.1877
1.09236e+08,-80.912
1.09303e+08,-80.838
1.0937e+08,-71.985
1.09436e+08,-70.6026
1.09503e+08,-68.0129
1.0957e+08,-78.0173
1.09637e+08,-79.2345
1.09703e+08,-79.398
1.0977e+08,-80.1425
1.09837e+08,-78.5358
1.09903e+08,-76.5244
1.0997e+08,-76.2477
1.10037e+08,-77.5645
1.10103e+08,-78.2142
1.1017e+08,-79.41
1.10237e+08,-78.1659
1.10303e+08,-79.6588
1.1037e+08,-78.9125
1.10437e+08,-78.2027
1.10504e+08,-79.0099
1.1057e+08,-79.0965
1.10637e+08,-78.1584
1.10704e+08,-75.5404
1.1077e+08,-75.4425
1.10837e+08,-76.77
1.10904e+08,-78.4369
1.1097e+08,-78.4736
1.11037e+08,-76.857
1.11104e+08,-78.6728
1.1117e+08,-76.9434
1.11237e+08,-76.8961
1.11304e+08,-77.1839
1.1137e+08,-76.2642
1.11437e+08,-76.3947
1.11504e+08,-77.0608
1.11571e+08,-75.0307
1.11637e+08,-76.4226
1.11704e+08,-75.8336
1.11771e+08,-76.4899
1.11837e+08,-75.33
1.11904e+08,-76.4261
1.11971e+08,-78.5456
1.12037e+08,-76.6753
1.12104e+08,-77.476
1.12171e+08,-76.3071
1.12237e+08,-76.8653
1.12304e+08,-77.4268
1.12371e+08,-77.8867
1.12437e+08,-76.2869
1.12504e+08,-76.6756
1.12571e+08,-77.9223
1.12638e+08,-77.0147
1.12704e+08,-77.7759
1.12771e+08,-76.8633
1.12838e+08,-75.4648
1.12904e+08,-76.1396
1.12971e+08,-76.0117
1.13038e+08,-76.4084
1.13104e+08,-76.7951
1.13171e+08,-76.4775
1.13238e+08,-75.7026
1.13304e+08,-76.142
1.13371e+08,-76.8879
1.13438e+08,-75.8775
1.13505e+08,-75.7875
1.13571e+08,-76.8553
1.13638e+08,-76.7854
1.13705e+08,-76.0098
1.13771e+08,-76.2679
1.13838e+08,-78.1861
1.13905e+08,-78.0246
1.13971e+08,-76.1942
1.14038e+08,-78.7297
1.14105e+08,-77.7675
1.14171e+08,-77.6814
1.14238e+08,-78.5356
1.14305e+08,-76.8034
1.14371e+08,-77.4465
1.14438e+08,-78.674
1.14505e+08,-76.9476
1.14572e+08,-76.2945
1.14638e+08,-74.5871
1.14705e+08,-75.6392
1.14772e+08,-76.8269
1.14838e+08,-77.7212
1.14905e+08,-78.6968
1.14972e+08,-77.7826
1.15038e+08,-77.9147
1.15105e+08,-78.3868
1.15172e+08,-77.9598
1.15238e+08,-78.2915
1.15305e+08,-78.1932
1.15372e+08,-79.5463
1.15438e+08,-79.9573
1.15505e+08,-78.9922
1.15572e+08,-79.2434
1.15639e+08,-79.7152
1.15705e+08,-77.3683
1.15772e+08,-77.4671
1.15839e+08,-76.3305
1.15905e+08,-77.5372
1.15972e+08,-77.583
1.16039e+08,-77.8265
1.16105e+08,-78.2416
1.16172e+08,-77.8952
1.16239e+08,-78.3968
1.16305e+08,-78.7488
1.16372e+08,-77.5358
1.16439e+08,-76.5818
1.16506e+08,-79.216
1.16572e+08,-79.0015
1.16639e+08,-77.8851
1.16706e+08,-78.7217
1.16772e+08,-77.871
1.16839e+08,-77.3783
1.16906e+08,-78.0598
1.16972e+08,-77.5797
1.17039e+08,-77.5329
1.17106e+08,-77.9541
1.17172e+08,-77.9978
1.17239e+08,-77.226
1.17306e+08,-77.4618
1.17372e+08,-76.5372
1.17439e+08,-75.7922
1.17506e+08,-76.1193
1.17573e+08,-76.0053
1.17639e+08,-75.3859
1.17706e+08,-75.7012
1.17773e+08,-76.2107
1.17839e+08,-76.4628
1.17906e+08,-75.5446
1.17973e+08,-76.0784
1.18039e+08,-76.1225
1.18106e+08,-76.681
1.18173e+08,-76.3404
1.18239e+08,-75.1931
1.18306e+08,-75.4883
1.18373e+08,-76.7267
1.18439e+08,-77.2821
1.18506e+08,-76.2015
1.18573e+08,-67.0894
1.1864e+08,-75.9779
1.18706e+08,-76.7858
1.18773e+08,-76.619
1.1884e+08,-77.7729
1.18906e+08,-76.3349
1.18973e+08,-78.089
1.1904e+08,-77.4218
1.19106e+08,-76.8214
1.19173e+08,-77.6843
1.1924e+08,-77.5838
1.19306e+08,-77.4969
1.19373e+08,-77.4692
1.1944e+08,-77.9167
1.19507e+08,-79.1883
1.19573e+08,-78.4066
1.1964e+08,-78.1289
1.19707e+08,-78.3592
1.19773e+08,-78.0472
1.1984e+08,-79.1731
1.19907e+08,-78.5899
1.19973e+08,-78.1377
1.2004e+08,-78.0586
1.20107e+08,-67.5619
1.20173e+08,-74.3011
1.2024e+08,-79.9852
1.20307e+08,-77.4957
1.20373e+08,-79.215
1.2044e+08,-77.579
1.20507e+08,-77.819
1.20574e+08,-71.1823
1.2064e+08,-71.6271
1.20707e+08,-77.5453
1.20774e+08,-78.6311
1.2084e+08,-80.1186
1.20907e+08,-78.6062
1.20974e+08,-80.1603
1.2104e+08,-78.5672
1.21107e+08,-78.0416
1.21174e+08,-78.6209
1.2124e+08,-78.782
1.21307e+08,-79.6001
1.21374e+08,-79.5516
1.2144e+08,-79.07
1.21507e+08,-78.6136
1.21574e+08,-79.6787
1.21641e+08,-78.412
1.21707e+08,-79.4381
1.21774e+08,-79.0599
1.21841e+08,-78.016
1.21907e+08,-79.3322
1.21974e+08,-77.9462
1.22041e+08,-77.9435
1.22107e+08,-77.0686
1.22174e+08,-77.826
1.22241e+08,-77.7322
1.22307e+08,-77.9947
1.22374e+08,-76.6203
1.22441e+08,-76.5442
1.22508e+08,-77.3377
1.22574e+08,-76.2452
1.22641e+08,-76.7042
1.22708e+08,-76.8488
1.22774e+08,-75.9451
1.22841e+08,-74.1314
1.22908e+08,-74.1666
1.22974e+08,-75.4216
1.23041e+08,-75.6935
1.23108e+08,-74.5085
1.23174e+08,-74.9874
1.23241e+08,-76.0637
1.23308e+08,-76.0117
1.23374e+08,-75.7047
1.23441e+08,-75.7591
1.23508e+08,-75.1375
1.23575e+08,-75.4204
1.23641e+08,-75.9968
1.23708e+08,-75.16
1.23775e+08,-75.2484
1.23841e+08,-75.0361
1.23908e+08,-75.9894
1.23975e+08,-76.0707
1.24041e+08,-76.2051
1.24108e+08,-76.7394
1.24175e+08,-75.6203
1.24241e+08,-76.8803
1.24308e+08,-76.2796
1.24375e+08,-76.2226
1.24441e+08,-76.9063
1.24508e+08,-76.9808
1.24575e+08,-76.8876
1.24642e+08,-76.7257
1.24708e+08,-77.3109
1.24775e+08,-75.1988
1.24842e+08,-75.368
1.24908e+08,-75.1784
1.24975e+08,-77.4439
1.25042e+08,-77.1958
1.25108e+08,-77.7844
1.25175e+08,-78.1939
1.25242e+08,-78.8868
1.25308e+08,-80.0482
1.25375e+08,-79.134
1.25442e+08,-79.4971
1.25509e+08,-78.6338
1.25575e+08,-75.8053
1.25642e+08,-76.6874
1.25709e+08,-77.8586
1.25775e+08,-77.6261
1.25842e+08,-79.5794
1.25909e+08,-79.5255
1.25975e+08,-73.2927
1.26042e+08,-79.6802
1.26109e+08,-80.3412
1.26175e+08,-79.9044
1.26242e+08,-81.0625
1.26309e+08,-80.6341
1.26375e+08,-79.5593
1.26442e+08,-80.7274
1.26509e+08,-81.1789
1.26576e+08,-80.8838
1.26642e+08,-80.729
1.26709e+08,-81.8122
1.26776e+08,-80.9857
1.26842e+08,-80.8197
1.26909e+08,-82.266
1.26976e+08,-81.5305
1.27042e+08,-79.5596
1.27109e+08,-80.1599
1.27176e+08,-81.8573
1.27242e+08,-81.9938
1.27309e+08,-81.7043
1.27376e+08,-81.6118
1.27442e+08,-82.2986
1.27509e+08,-80.695
1.27576e+08,-79.352
1.27643e+08,-81.2578
1.27709e+08,-82.2272
1.27776e+08,-82.2413
1.27843e+08,-81.6763
1.27909e+08,-81.6112
1.27976e+08,-79.7583
1.28043e+08,-81.8403
1.28109e+08,-81.0803
1.28176e+08,-66.2191
1.28243e+08,-66.2341
1.28309e+08,-80.8708
1.28376e+08,-80.8268
1.28443e+08,-80.8511
1.2851e+08,-80.1551
1.28576e+08,-80.6748
1.28643e+08,-81.1179
1.2871e+08,-79.4646
1.28776e+08,-80.799
1.28843e+08,-81.2066
1.2891e+08,-21.3965
1.28976e+08,-30.251
1.29043e+08,-72.6481
1.2911e+08,-74.6806
1.29176e+08,-75.9658
1.29243e+08,-79.4447
1.2931e+08,-74.0301
1.29376e+08,-76.8397
1.29443e+08,-73.8494
1.2951e+08,-77.5214
1.29577e+08,-77.6706
1.29643e+08,-79.1965
1.2971e+08,-76.7884
1.29777e+08,-78.8923
1.29843e+08,-78.8127
1.2991e+08,-79.0467
1.29977e+08,-79.1607
1.30043e+08,-79.8005
1.3011e+08,-78.3041
1.30177e+08,-79.7802
1.30243e+08,-77.6785
1.3031e+08,-78.6701
1.30377e+08,-80.1497
1.30443e+08,-80.8703
1.3051e+08,-78.8373
1.30577e+08,-79.8629
1.30644e+08,-80.1995
1.3071e+08,-80.292
1.30777e+08,-80.9998
1.30844e+08,-80.3701
1.3091e+08,-79.2179
1.30977e+08,-79.692
1.31044e+08,-80.1792
1.3111e+08,-79.2164
1.31177e+08,-80.4268
1.31244e+08,-80.146
1.3131e+08,-79.6271
1.31377e+08,-80.1164
1.31444e+08,-80.5744
1.31511e+08,-80.5588
1.31577e+08,-79.3902
1.31644e+08,-77.8602
1.31711e+08,-80.6269
1.31777e+08,-79.8372
1.31844e+08,-79.0195
1.31911e+08,-80.8406
1.31977e+08,-80.6431
1.32044e+08,-78.3548
1.32111e+08,-78.8648
1.32177e+08,-79.0145
1.32244e+08,-79.7016
1.32311e+08,-79.0539
1.32377e+08,-79.1811
1.32444e+08,-80.6884
1.32511e+08,-79.4678
1.32578e+08,-79.6746
1.32644e+08,-79.8169
1.32711e+08,-79.9926
1.32778e+08,-80.0687
1.32844e+08,-79.055
1.32911e+08,-79.3224
1.32978e+08,-79.2801
1.33044e+08,-79.652
1.33111e+08,-79.6352
1.33178e+08,-79.9496
1.33244e+08,-80.0738
1.33311e+08,-80.3457
1.33378e+08,-78.2102
1.33444e+08,-78.5814
1.33511e+08,-79.0983
1.33578e+08,-81.084
1.33645e+08,-80.5157
1.33711e+08,-79.3794
1.33778e+08,-80.8079
1.33845e+08,-80.0664
1.33911e+08,-78.7674
1.33978e+08,-76.7407
1.34045e+08,-80.1682
1.34111e+08,-80.5272
1.34178e+08,-77.1291
1.34245e+08,-80.5292
1.34311e+08,-80.8725
1.34378e+08,-80.4622
1.34445e+08,-79.44
1.34512e+08,-80.5785
1.34578e+08,-79.8523
1.34645e+08,-80.8076
1.34712e+08,-81.6726
1.34778e+08,-79.6798
1.34845e+08,-81.348
1.34912e+08,-78.3802
1.34978e+08,-80.83
1.35045e+08,-81.2707
1.35112e+08,-81.1239
1.35178e+08,-79.8561
1.35245e+08,-80.0873
1.35312e+08,-81.1741
1.35378e+08,-81.3738
1.35445e+08,-81.4971
1.35512e+08,-80.6196
1.35579e+08,-80.3375
1.35645e+08,-81.0845
1.35712e+08,-80.9059
1.35779e+08,-80.1206
1.35845e+08,-80.6292
1.35912e+08,-81.1502
1.35979e+08,-81.7044
1.36045e+08,-79.3566
1.36112e+08,-82.3852
1.36179e+08,-81.5084
1.36245e+08,-81.4306
1.36312e+08,-81.0442
1.36379e+08,-80.4472
1.36445e+08,-80.1675
1.36512e+08,-80.4851
1.36579e+08,-81.9876
1.36646e+08,-81.0801
1.36712e+08,-80.9331
1.36779e+08,-81.1501
1.36846e+08,-79.3796
1.36912e+08,-81.316
1.36979e+08,-81.052
1.37046e+08,-81.6964
1.37112e+08,-80.039
1.37179e+08,-82.0908
1.37246e+08,-82.2176
1.37312e+08,-81.5033
1.37379e+08,-81.9282
1.37446e+08,-81.0037
1.37513e+08,-82.0414
1.37579e+08,-82.0015
1.37646e+08,-81.6884
1.37713e+08,-82.4972
1.37779e+08,-81.9323
1.37846e+08,-80.7061
1.37913e+08,-80.4029
1.37979e+08,-79.8184
1.38046e+08,-80.7634
1.38113e+08,-82.5817
1.38179e+08,-81.2899
1.38246e+08,-81.8687
1.38313e+08,-81.7527
1.38379e+08,-82.572
1.38446e+08,-80.2513
1.38513e+08,-81.579
1.3858e+08,-82.1783
1.38646e+08,-82.087
1.38713e+08,-81.6563
1.3878e+08,-81.2558
1.38846e+08,-82.9713
1.38913e+08,-82.4504
1.3898e+08,-82.6135
1.39046e+08,-80.1856
1.39113e+08,-78.558
1.3918e+08,-76.7484
1.39246e+08,-64.325
1.39313e+08,-73.3841
1.3938e+08,-75.6255
1.39446e+08,-75.5668
1.39513e+08,-75.7248
1.3958e+08,-76.0593
1.39647e+08,-76.6689
1.39713e+08,-79.1466
1.3978e+08,-75.8489
1.39847e+08,-76.9033
1.39913e+08,-76.6553
1.3998e+08,-75.8421
1.40047e+08,-76.1102
1.40113e+08,-76.2991
1.4018e+08,-76.7605
1.40247e+08,-76.5393
1.40313e+08,-76.3704
1.4038e+08,-76.8993
1.40447e+08,-78.0951
1.40514e+08,-76.1908
1.4058e+08,-74.3652
1.40647e+08,-74.4951
1.40714e+08,-74.4615
1.4078e+08,-73.7837
1.40847e+08,-73.8967
1.40914e+08,-73.7023
1.4098e+08,-72.8548
1.41047e+08,-72.7659
1.41114e+08,-75.3667
1.4118e+08,-76.9773
1.41247e+08,-79.0325
1.41314e+08,-76.9342
1.4138e+08,-78.2987
1.41447e+08,-79.3423
1.41514e+08,-78.0165
1.41581e+08,-77.9572
1.41647e+08,-76.525
1.41714e+08,-77.972
1.41781e+08,-77.1599
1.41847e+08,-77.6172
1.41914e+08,-77.4579
1.41981e+08,-76.5569
1.42047e+08,-75.4995
1.42114e+08,-77.5979
1.42181e+08,-77.656
1.42247e+08,-79.0582
1.42314e+08,-80.6695
1.42381e+08,-80.3722
1.42447e+08,-80.2535
1.42514e+08,-81.3668
1.42581e+08,-80.2173
1.42648e+08,-77.9132
1.42714e+08,-77.9374
1.42781e+08,-77.1134
1.42848e+08,-75.8665
1.42914e+08,-76.3022
1.42981e+08,-65.2694
1.43048e+08,-79.4446
1.43114e+08,-80.9356
1.43181e+08,-81.0697
1.43248e+08,-79.5238
1.43314e+08,-82.2124
1.43381e+08,-81.6453
1.43448e+08,-82.9809
1.43515e+08,-82.2997
1.43581e+08,-82.4986
1.43648e+08,-81.459
1.43715e+08,-82.6823
1.43781e+08,-82.3912
1.43848e+08,-82.7085
1.43915e+08,-80.5564
1.43981e+08,-82.1231
1.44048e+08,-81.4257
1.44115e+08,-81.7125
1.44181e+08,-81.9877
1.44248e+08,-82.4898
1.44315e+08,-80.791
1.44381e+08,-80.2566
1.44448e+08,-81.5174
1.44515e+08,-80.9029
1.44582e+08,-79.8442
1.44648e+08,-81.0071
1.44715e+08,-80.7039
1.44782e+08,-81.7145
1.44848e+08,-82.4853
1.44915e+08,-82.9057
1.44982e+08,-83.099
1.45048e+08,-81.3078
1.45115e+08,-82.1292
1.45182e+08,-83.1508
1.45248e+08,-81.809
1.45315e+08,-80.1472
1.45382e+08,-81.9464
1.45448e+08,-82.6576
1.45515e+08,-82.8059
1.45582e+08,-80.3333
1.45649e+08,-81.5904
1.45715e+08,-81.3661
1.45782e+08,-82.7057
1.45849e+08,-82.6468
1.45915e+08,-67.9309
1.45982e+08,-82.7826
1.46049e+08,-81.7259
1.46115e+08,-82.6759
1.46182e+08,-83.6161
1.46249e+08,-82.117
1.46315e+08,-81.4558
1.46382e+08,-82.6157
1.46449e+08,-82.4732
1.46516e+08,-81.9989
1.46582e+08,-82.0381
1.46649e+08,-82.7579
1.46716e+08,-82.9242
1.46782e+08,-81.3147
1.46849e+08,-82.5543
1.46916e+08,-82.0974
1.46982e+08,-82.6616
1.47049e+08,-82.7707
1.47116e+08,-82.7662
1.47182e+08,-81.4629
1.47249e+08,-83.1106
1.47316e+08,-80.8692
1.47382e+08,-81.3569
1.47449e+08,-81.9344
1.47516e+08,-81.1247
1.47583e+08,-81.8764
1.47649e+08,-80.9302
1.47716e+08,-82.2051
1.47783e+08,-82.4101
1.47849e+08,-80.8367
1.47916e+08,-81.0179
1.47983e+08,-81.1407
1.48049e+08,-80.5436
1.48116e+08,-79.6453
1.48183e+08,-80.8027
1.48249e+08,-80.1484
1.48316e+08,-79.7881
1.48383e+08,-81.5424
1.48449e+08,-79.3188
1.48516e+08,-81.7423
1.48583e+08,-81.368
1.4865e+08,-80.961
1.48716e+08,-82.339
1.48783e+08,-81.4508
1.4885e+08,-81.8704
1.48916e+08,-81.1109
1.48983e+08,-81.5928
1.4905e+08,-81.0385
1.49116e+08,-81.616
1.49183e+08,-81.1121
1.4925e+08,-81.1018
1.49316e+08,-80.5493
1.49383e+08,-80.1691
1.4945e+08,-81.8375
1.49517e+08,-79.7707
1.49583e+08,-81.2936
1.4965e+08,-81.2301
1.49717e+08,-80.7535
1.49783e+08,-80.8855
1.4985e+08,-79.8835
1.49917e+08,-81.524
1.49983e+08,-81.2276
1.5005e+08,-80.7416
1.50117e+08,-81.1969
1.50183e+08,-81.5494
1.5025e+08,-81.8456
1.50317e+08,-82.0609
1.50383e+08,-82.5163
1.5045e+08,-81.869
1.50517e+08,-82.2768
1.50584e+08,-82.0917
1.5065e+08,-81.137
1.50717e+08,-78.6878
1.50784e+08,-79.7583
1.5085e+08,-81.9089
1.50917e+08,-81.8052
1.50984e+08,-82.2175
1.5105e+08,-81.3932
1.51117e+08,-81.127
1.51184e+08,-81.6768
1.5125e+08,-82.2975
1.51317e+08,-81.4318
1.51384e+08,-82.4896
1.5145e+08,-81.6435
1.51517e+08,-79.5376
1.51584e+08,-81.95
1.51651e+08,-81.9675
1.51717e+08,-82.2641
1.51784e+08,-81.9126
1.51851e+08,-81.079
1.51917e+08,-81.6053
1.51984e+08,-82.2137
1.52051e+08,-81.907
1.52117e+08,-80.8934
1.52184e+08,-81.9096
1.52251e+08,-80.9275
1.52317e+08,-81.6752
1.52384e+08,-82.4782
1.52451e+08,-81.5599
1.52518e+08,-81.315
1.52584e+08,-81.8601
1.52651e+08,-81.7147
1.52718e+08,-82.1786
1.52784e+08,-82.0825
1.52851e+08,-75.4047
1.52918e+08,-81.4571
1.52984e+08,-80.9348
1.53051e+08,-80.7787
1.53118e+08,-81.9349
1.53184e+08,-69.1038
1.53251e+08,-80.6088
1.53318e+08,-81.5122
1.53384e+08,-82.0962
1.53451e+08,-82.2511
1.53518e+08,-81.9896
1.53585e+08,-81.7252
1.53651e+08,-81.8485
1.53718e+08,-81.9412
1.53785e+08,-83.0492
1.53851e+08,-82.0161
1.53918e+08,-80.0072
1.53985e+08,-83.0232
1.54051e+08,-81.6797
1.54118e+08,-82.8086
1.54185e+08,-80.3133
1.54251e+08,-81.1395
1.54318e+08,-81.372
1.54385e+08,-82.4977
1.54451e+08,-79.815
1.54518e+08,-82.5005
1.54585e+08,-82.4502
1.54652e+08,-82.6821
1.54718e+08,-82.5375
1.54785e+08,-81.3786
1.54852e+08,-80.7746
1.54918e+08,-82.1917
1.54985e+08,-79.1043
1.55052e+08,-82.0581
1.55118e+08,-82.7535
1.55185e+08,-82.2642
1.55252e+08,-82.7248
1.55318e+08,-81.5901
1.55385e+08,-83.2904
1.55452e+08,-82.7787
1.55519e+08,-82.7544
1.55585e+08,-82.1978
1.55652e+08,-82.2532
1.55719e+08,-83.2208
1.55785e+08,-82.8801
1.55852e+08,-81.6871
1.55919e+08,-81.9463
1.55985e+08,-82.1985
1.56052e+08,-81.6751
1.56119e+08,-82.0063
1.56185e+08,-62.488
1.56252e+08,-75.4319
1.56319e+08,-82.3082
1.56385e+08,-81.9464
1.56452e+08,-82.7236
1.56519e+08,-81.8412
1.56586e+08,-83.1352
1.56652e+08,-81.6322
1.56719e+08,-82.9863
1.56786e+08,-81.8357
1.56852e+08,-82.4984
1.56919e+08,-82.9767
1.56986e+08,-82.641
1.57052e+08,-82.6014
1.57119e+08,-82.4579
1.57186e+08,-82.6121
1.57252e+08,-82.1445
1.57319e+08,-82.2781
1.57386e+08,-82.6969
1.57452e+08,-81.9636
1.57519e+08,-82.863
1.57586e+08,-80.1191
1.57653e+08,-82.6516
1.57719e+08,-82.5575
1.57786e+08,-83.6117
1.57853e+08,-82.6855
1.57919e+08,-83.0632
1.57986e+08,-82.7716
1.58053e+08,-82.3746
1.58119e+08,-81.5518
1.58186e+08,-82.794
1.58253e+08,-82.3617
1.58319e+08,-82.3726
1.58386e+08,-82.4254
1.58453e+08,-82.1688
1.5852e+08,-82.8274
1.58586e+08,-83.2076
1.58653e+08,-81.2756
1.5872e+08,-83.9943
1.58786e+08,-83.2061
1.58853e+08,-82.9947
1.5892e+08,-83.4082
1.58986e+08,-81.9594
1.59053e+08,-82.8796
1.5912e+08,-81.6276
1.59186e+08,-82.1596
1.59253e+08,-83.6931
1.5932e+08,-82.4529
1.59386e+08,-81.2033
1.59453e+08,-83.7985
1.5952e+08,-83.0348
1.59587e+08,-82.3025
1.59653e+08,-82.7989
1.5972e+08,-82.089
1.59787e+08,-82.2558
1.59853e+08,-81.9964
1.5992e+08,-82.9867
1.59987e+08,-82.2019
1.60053e+08,-82.852
1.6012e+08,-82.3628
1.60187e+08,-82.5662
1.60253e+08,-83.532
1.6032e+08,-83.6497
1.60387e+08,-82.2851
1.60453e+08,-82.5993
1.6052e+08,-83.0602
1.60587e+08,-82.6571
1.60654e+08,-83.2592
1.6072e+08,-82.9278
1.60787e+08,-83.3259
1.60854e+08,-83.6105
1.6092e+08,-83.0819
1.60987e+08,-82.5446
1.61054e+08,-82.5636
1.6112e+08,-82.5592
1.61187e+08,-82.6447
1.61254e+08,-82.855
1.6132e+08,-83.4979
1.61387e+08,-63.2558
1.61454e+08,-63.8953
1.61521e+08,-63.5103
1.61587e+08,-82.3366
1.61654e+08,-82.9167
1.61721e+08,-83.4
1.61787e+08,-82.7908
1.61854e+08,-83.3819
1.61921e+08,-83.3302
1.61987e+08,-83.5845
1.62054e+08,-83.0034
1.62121e+08,-83.0316
1.62187e+08,-82.3816
1.62254e+08,-82.3013
1.62321e+08,-82.9564
1.62387e+08,-83.3054
1.62454e+08,-81.1836
1.62521e+08,-80.7548
1.62588e+08,-73.7445
1.62654e+08,-82.7564
1.62721e+08,-82.59
1.62788e+08,-83.5741
1.62854e+08,-83.3615
1.62921e+08,-81.5191
1.62988e+08,-82.5296
1.63054e+08,-82.6938
1.63121e+08,-83.3212
1.63188e+08,-82.2943
1.63254e+08,-83.1557
1.63321e+08,-83.068
1.63388e+08,-82.7111
1.63454e+08,-82.7823
1.63521e+08,-83.5686
1.63588e+08,-82.5757
1.63655e+08,-83.347
1.63721e+08,-82.6296
1.63788e+08,-83.1476
1.63855e+08,-83.064
1.63921e+08,-83.658
1.63988e+08,-82.9439
1.64055e+08,-82.8946
1.64121e+08,-83.0372
1.64188e+08,-83.2453
1.64255e+08,-83.2999
1.64321e+08,-81.8903
1.64388e+08,-83.8606
1.64455e+08,-81.4319
1.64522e+08,-81.9359
1.64588e+08,-81.9463
1.64655e+08,-80.78
1.64722e+08,-83.3947
1.64788e+08,-83.4589
1.64855e+08,-80.9813
1.64922e+08,-83.0891
1.64988e+08,-82.5301
1.65055e+08,-82.7224
1.65122e+08,-83.1919
1.65188e+08,-80.3176
1.65255e+08,-83.17
1.65322e+08,-82.3886
1.65388e+08,-82.5349
1.65455e+08,-81.151
1.65522e+08,-82.4795
1.65589e+08,-82.7423
1.65655e+08,-82.8502
1.65722e+08,-83.6356
1.65789e+08,-83.7419
1.65855e+08,-83.6878
1.65922e+08,-82.083
1.65989e+08,-82.6757
1.66055e+08,-82.8431
1.66122e+08,-82.8791
1.66189e+08,-82.6663
1.66255e+08,-83.5655
1.66322e+08,-83.8551
1.66389e+08,-82.473
1.66455e+08,-82.8522
1.66522e+08,-82.4991
1.66589e+08,-83.585
1.66656e+08,-81.9126
1.66722e+08,-83.4877
1.66789e+08,-83.1292
1.66856e+08,-81.9474
1.66922e+08,-82.9422
1.66989e+08,-82.3074
1.67056e+08,-82.6637
1.67122e+08,-81.9856
1.67189e+08,-82.4014
1.67256e+08,-82.8746
1.67322e+08,-82.6577
1.67389e+08,-82.1016
1.67456e+08,-82.0382
1.67523e+08,-81.9534
1.67589e+08,-81.4979
1.67656e+08,-82.4751
1.67723e+08,-82.7023
1.67789e+08,-82.5951
1.67856e+08,-82.2819
1.67923e+08,-81.9285
1.67989e+08,-83.3701
1.68056e+08,-82.1824
1.68123e+08,-83.2921
1.68189e+08,-82.8473
1.68256e+08,-82.5758
1.68323e+08,-82.1654
1.68389e+08,-82.4618
1.68456e+08,-82.4962
1.68523e+08,-83.2043
1.6859e+08,-82.542
1.68656e+08,-83.0693
1.68723e+08,-82.8392
1.6879e+08,-82.7342
1.68856e+08,-83.7637
1.68923e+08,-83.5104
1.6899e+08,-82.5782
1.69056e+08,-82.2313
1.69123e+08,-82.7918
1.6919e+08,-82.1029
1.69256e+08,-81.8568
1.69323e+08,-83.5644
1.6939e+08,-82.6224
1.69456e+08,-82.854
1.69523e+08,-82.7007
1.6959e+08,-82.5306
1.69657e+08,-83.3877
1.69723e+08,-82.6476
1.6979e+08,-83.0733
1.69857e+08,-82.4392
1.69923e+08,-81.2547
1.6999e+08,-82.7652
1.70057e+08,-82.7407
1.70123e+08,-83.0251
1.7019e+08,-82.1103
1.70257e+08,-83.2335
1.70323e+08,-83.513
1.7039e+08,-83.0066
1.70457e+08,-83.6222
1.70524e+08,-83.5774
1.7059e+08,-81.7533
1.70657e+08,-82.3869
1.70724e+08,-81.6598
1.7079e+08,-82.4051
1.70857e+08,-83.6636
1.70924e+08,-81.7294
1.7099e+08,-82.806
1.71057e+08,-82.4806
1.71124e+08,-83.0924
1.7119e+08,-82.8653
1.71257e+08,-81.9912
1.71324e+08,-83.268
1.7139e+08,-83.6418
1.71457e+08,-82.5714
1.71524e+08,-82.3152
1.71591e+08,-82.1109
1.71657e+08,-83.6487
1.71724e+08,-82.8451
1.71791e+08,-80.8384
1.71857e+08,-81.9757
1.71924e+08,-83.1366
1.71991e+08,-82.5753
1.72057e+08,-83.0979
1.72124e+08,-83.7572
1.72191e+08,-82.637
1.72257e+08,-81.7265
1.72324e+08,-81.6549
1.72391e+08,-82.2516
1.72457e+08,-82.2891
1.72524e+08,-83.3017
1.72591e+08,-82.7537
1.72658e+08,-83.3608
1.72724e+08,-83.9212
1.72791e+08,-82.8696
1.72858e+08,-82.1238
1.72924e+08,-82.8971
1.72991e+08,-81.8251
1.73058e+08,-83.414
1.73124e+08,-82.0808
1.73191e+08,-82.3986
1.73258e+08,-82.6289
1.73324e+08,-82.5968
1.73391e+08,-83.907
1.73458e+08,-83.4632
1.73525e+08,-81.7027
1.73591e+08,-81.7307
1.73658e+08,-82.8102
1.73725e+08,-83.6688
1.73791e+08,-81.6509
1.73858e+08,-81.3749
1.73925e+08,-82.6121
1.73991e+08,-82.3234
1.74058e+08,-83.1038
1.74125e+08,-83.196
1.74191e+08,-82.2002
1.74258e+08,-83.4224
1.74325e+08,-81.5238
1.74391e+08,-82.8657
1.74458e+08,-82.0931
1.74525e+08,-81.952
1.74592e+08,-83.0747
1.74658e+08,-82.6383
1.74725e+08,-82.5468
1.74792e+08,-81.5623
1.74858e+08,-83.2585
1.74925e+08,-83.5091
1.74992e+08,-83.4517
1.75058e+08,-83.3298
1.75125e+08,-83.3768
1.75192e+08,-83.7748
1.75258e+08,-83.7246
1.75325e+08,-82.9819
1.75392e+08,-82.9236
1.75458e+08,-83.2497
1.75525e+08,-82.8694
1.75592e+08,-83.038
1.75659e+08,-82.9422
1.75725e+08,-82.7583
1.75792e+08,-83.4152
1.75859e+08,-82.6531
1.75925e+08,-81.8902
1.75992e+08,-82.7805
1.76059e+08,-83.0428
1.76125e+08,-82.1555
1.76192e+08,-82.7669
1.76259e+08,-82.0349
1.76325e+08,-82.9826
1.76392e+08,-83.082
1.76459e+08,-82.0557
1.76526e+08,-82.6202
1.76592e+08,-82.6317
1.76659e+08,-82.5048
1.76726e+08,-83.1384
1.76792e+08,-82.9998
1.76859e+08,-82.5505
1.76926e+08,-82.7453
1.76992e+08,-81.448
1.77059e+08,-80.3285
1.77126e+08,-81.6223
1.77192e+08,-82.5362
1.77259e+08,-83.3694
1.77326e+08,-82.8395
1.77392e+08,-83.2437
1.77459e+08,-82.2097
1.77526e+08,-82.4397
1.77593e+08,-83.6397
1.77659e+08,-83.2417
1.77726e+08,-83.1056
1.77793e+08,-83.3351
1.77859e+08,-81.5744
1.77926e+08,-82.5978
1.77993e+08,-82.7252
1.78059e+08,-81.6472
1.78126e+08,-82.7766
1.78193e+08,-82.58
1.78259e+08,-81.7422
1.78326e+08,-83.2967
1.78393e+08,-80.9252
1.78459e+08,-82.39
1.78526e+08,-83.0201
1.78593e+08,-82.2126
1.7866e+08,-82.3382
1.78726e+08,-82.6196
1.78793e+08,-82.4536
1.7886e+08,-81.3201
1.78926e+08,-82.3826
1.78993e+08,-81.8635
1.7906e+08,-81.3049
1.79126e+08,-83.0406
1.79193e+08,-83.6232
1.7926e+08,-81.3171
1.79326e+08,-82.4262
1.79393e+08,-82.2905
1.7946e+08,-82.1455
1.79527e+08,-82.2474
1.79593e+08,-80.5603
1.7966e+08,-81.8585
1.79727e+08,-83.0235
1.79793e+08,-83.2727
1.7986e+08,-82.3756
1.79927e+08,-83.2632
1.79993e+08,-81.8742
1.8006e+08,-82.8885
1.80127e+08,-83.172
1.80193e+08,-82.5768
1.8026e+08,-82.4777
1.80327e+08,-83.2902
1.80393e+08,-82.2371
1.8046e+08,-83.45
1.80527e+08,-82.7708
1.80594e+08,-82.8027
1.8066e+08,-82.0465
1.80727e+08,-82.962
1.80794e+08,-83.0741
1.8086e+08,-81.9892
1.80927e+08,-83.0605
1.80994e+08,-81.9438
1.8106e+08,-83.8401
1.81127e+08,-82.6095
1.81194e+08,-82.8431
1.8126e+08,-82.1282
1.81327e+08,-82.999
1.81394e+08,-83.4035
1.8146e+08,-83.1197
1.81527e+08,-83.0225
1.81594e+08,-83.1525
1.81661e+08,-82.8069
1.81727e+08,-80.6199
1.81794e+08,-82.4741
1.81861e+08,-82.2451
1.81927e+08,-81.4771
1.81994e+08,-81.9621
1.82061e+08,-82.6705
1.82127e+08,-82.686
1.82194e+08,-83.0384
1.82261e+08,-83.0631
1.82327e+08,-82.2799
1.82394e+08,-82.2449
1.82461e+08,-81.6819
1.82528e+08,-82.3439
1.82594e+08,-81.6096
1.82661e+08,-82.499
1.82728e+08,-81.3979
1.82794e+08,-82.1886
1.82861e+08,-80.5924
1.82928e+08,-82.6599
1.82994e+08,-81.4272
1.83061e+08,-81.5353
1.83128e+08,-82.9771
1.83194e+08,-82.6539
1.83261e+08,-82.8153
1.83328e+08,-83.0635
1.83394e+08,-82.9918
1.83461e+08,-82.1798
1.83528e+08,-82.8707
1.83595e+08,-82.772
1.83661e+08,-82.1404
1.83728e+08,-82.4478
1.83795e+08,-82.9058
1.83861e+08,-82.5215
1.83928e+08,-82.9503
1.83995e+08,-82.859
1.84061e+08,-82.1109
1.84128e+08,-81.6873
1.84195e+08,-83.3651
1.84261e+08,-81.9451
1.84328e+08,-82.9142
1.84395e+08,-81.8265
1.84461e+08,-82.6204
1.84528e+08,-82.7732
1.84595e+08,-83.1045
1.84662e+08,-82.0538
1.84728e+08,-81.9379
1.84795e+08,-82.7589
1.84862e+08,-82.4392
1.84928e+08,-81.9846
1.84995e+08,-82.0813
1.85062e+08,-81.9873
1.85128e+08,-82.7809
1.85195e+08,-82.6309
1.85262e+08,-81.4485
1.85328e+08,-83.0358
1.85395e+08,-82.6013
1.85462e+08,-82.4937
1.85529e+08,-82.7169
1.85595e+08,-82.9088
1.85662e+08,-82.83
1.85729e+08,-83.3622
1.85795e+08,-82.899
1.85862e+08,-82.0223
1.85929e+08,-83.7259
1.85995e+08,-82.8851
1.86062e+08,-83.1444
1.86129e+08,-83.4293
1.86195e+08,-81.7475
1.86262e+08,-82.5114
1.86329e+08,-81.9111
1.86395e+08,-82.666
1.86462e+08,-82.7423
1.86529e+08,-82.411
1.86596e+08,-82.5843
1.86662e+08,-83.3378
1.86729e+08,-82.5953
1.86796e+08,-82.8502
1.86862e+08,-82.3501
1.86929e+08,-81.1505
1.86996e+08,-82.5336
1.87062e+08,-83.1624
1.87129e+08,-82.2707
1.87196e+08,-82.3243
1.87262e+08,-80.997
1.87329e+08,-82.1317
1.87396e+08,-82.3228
1.87462e+08,-81.7561
1.87529e+08,-82.5216
1.87596e+08,-82.8648
1.87663e+08,-81.1112
1.87729e+08,-81.86
1.87796e+08,-82.8551
1.87863e+08,-81.5168
1.87929e+08,-82.342
1.87996e+08,-82.3377
1.88063e+08,-82.2868
1.88129e+08,-82.6812
1.88196e+08,-81.7036
1.88263e+08,-82.293
1.88329e+08,-81.57
1.88396e+08,-81.3241
1.88463e+08,-79.8257
1.8853e+08,-81.9167
1.88596e+08,-81.2503
1.88663e+08,-82.194
1.8873e+08,-82.9517
1.88796e+08,-82.5798
1.88863e+08,-82.0861
1.8893e+08,-80.3159
1.88996e+08,-82.7355
1.89063e+08,-81.9908
1.8913e+08,-81.7074
1.89196e+08,-82.0912
1.89263e+08,-82.5364
1.8933e+08,-81.8738
1.89396e+08,-81.9808
1.89463e+08,-81.2472
1.8953e+08,-81.7333
1.89597e+08,-82.8004
1.89663e+08,-82.4463
1.8973e+08,-81.2727
1.89797e+08,-83.1632
1.89863e+08,-83.4409
1.8993e+08,-82.2728
1.89997e+08,-82.2723
1.90063e+08,-81.3254
1.9013e+08,-80.9522
1.90197e+08,-81.7792
1.90263e+08,-81.2894
1.9033e+08,-82.7052
1.90397e+08,-81.382
1.90463e+08,-83.1625
1.9053e+08,-82.9215
1.90597e+08,-82.6344
1.90664e+08,-81.4184
1.9073e+08,-82.3249
1.90797e+08,-81.6264
1.90864e+08,-81.452
1.9093e+08,-82.4054
1.90997e+08,-82.2609
1.91064e+08,-82.0734
1.9113e+08,-81.4289
1.91197e+08,-81.5662
1.91264e+08,-82.2319
1.9133e+08,-80.74
1.91397e+08,-81.6507
1.91464e+08,-82.2999
1.91531e+08,-83.082
1.91597e+08,-82.72
1.91664e+08,-81.1726
1.91731e+08,-82.2438
1.91797e+08,-82.6496
1.91864e+08,-81.9176
1.91931e+08,-82.857
1.91997e+08,-81.0148
1.92064e+08,-81.9496
1.92131e+08,-82.3221
1.92197e+08,-81.4842
1.92264e+08,-82.7558
1.92331e+08,-81.6942
1.92397e+08,-82.1621
1.92464e+08,-82.9487
1.92531e+08,-81.5207
1.92598e+08,-82.3108
1.92664e+08,-83.099
1.92731e+08,-82.4944
1.92798e+08,-81.2841
1.92864e+08,-82.4065
1.92931e+08,-82.6978
1.92998e+08,-82.8118
1.93064e+08,-82.5357
1.93131e+08,-83.0573
1.93198e+08,-80.3239
1.93264e+08,-81.3048
1.93331e+08,-82.3677
1.93398e+08,-82.5053
1.93464e+08,-81.8243
1.93531e+08,-81.2407
1.93598e+08,-82.315
1.93665e+08,-82.6073
1.93731e+08,-82.7775
1.93798e+08,-82.8637
1.93865e+08,-82.0826
1.93931e+08,-81.2549
1.93998e+08,-81.8756
1.94065e+08,-82.2109
1.94131e+08,-82.3931
1.94198e+08,-80.5898
1.94265e+08,-82.275
1.94331e+08,-82.098
1.94398e+08,-82.8302
1.94465e+08,-80.0584
1.94532e+08,-81.8383
1.94598e+08,-82.1723
1.94665e+08,-81.8521
1.94732e+08,-82.1445
1.94798e+08,-80.3491
1.94865e+08,-81.9996
1.94932e+08,-81.0734
1.94998e+08,-82.7762
1.95065e+08,-80.1596
1.95132e+08,-81.9042
1.95198e+08,-81.8814
1.95265e+08,-82.3375
1.95332e+08,-80.2524
1.95398e+08,-81.5133
1.95465e+08,-82.0857
1.95532e+08,-81.8715
1.95599e+08,-80.7273
1.95665e+08,-80.8841
1.95732e+08,-80.8737
1.95799e+08,-81.7189
1.95865e+08,-81.9098
1.95932e+08,-81.7544
1.95999e+08,-81.2015
1.96065e+08,-80.8119
1.96132e+08,-81.7639
1.96199e+08,-81.859
1.96265e+08,-81.8808
1.96332e+08,-82.4992
1.96399e+08,-81.8501
1.96465e+08,-82.1277
1.96532e+08,-81.6373
1.96599e+08,-82.5371
1.96666e+08,-81.3908
1.96732e+08,-81.1686
1.96799e+08,-81.8842
1.96866e+08,-82.2593
1.96932e+08,-81.3888
1.96999e+08,-82.0932
1.97066e+08,-80.7066
1.97132e+08,-81.6111
1.97199e+08,-80.8198
1.97266e+08,-82.9924
1.97332e+08,-82.2986
1.97399e+08,-80.2215
1.97466e+08,-80.4573
1.97533e+08,-82.0968
1.97599e+08,-81.5217
1.97666e+08,-82.8098
1.97733e+08,-81.3582
1.97799e+08,-83.0519
1.97866e+08,-80.9707
1.97933e+08,-82.6642
1.97999e+08,-82.1238
1.98066e+08,-81.9755
1.98133e+08,-82.1113
1.98199e+08,-81.0861
1.98266e+08,-80.9176
1.98333e+08,-81.6526
1.98399e+08,-81.0136
1.98466e+08,-82.7255
1.98533e+08,-82.427
1.986e+08,-82.3792
1.98666e+08,-80.4389
1.98733e+08,-81.4598
1.988e+08,-82.0417
1.98866e+08,-82.0336
1.98933e+08,-81.699
1.99e+08,-80.1483
1.99066e+08,-81.206
1.99133e+08,-82.0543
1.992e+08,-80.8741
1.99266e+08,-81.9477
1.99333e+08,-82.3187
1.994e+08,-82.1862
1.99466e+08,-81.4014
1.99533e+08,-81.1373
1.996e+08,-80.4067
1.99667e+08,-81.1534
1.99733e+08,-80.6865
1.998e+08,-82.1601
1.99867e+08,-81.7029
1.99933e+08,-80.5212
2e+08,-79.5804
