FileType,0
Number of Points,3000
Sweep Time,3e+08
Start Frequency,0
Stop Frequency,2e+08
Average Count,10
Average Type,0
RBW,10000
RBW Filter,0
RBW Filter BW,0
VBW,10000
Sweep Type,0
X Axis Scale,1
PreAmp State,0
Trigger Source,0
Trigger Level,-25
Trigger Edge,0
Trigger Delay Switch,0
Trigger Delay,1
Attenuation,0
Ref Level Offset,0
External Gain,0
Trace Type,0
Detector,0
Trace Math,5
Trace Math Oper1,4
Trace Math Oper2,5
Trace Math Offset,0
Trace Name,0
Full Span,2e+08
Y Axis Unit,0
DATA,
0,-30.301
66688.9,-83.4505
133378,-75.929
200067,-70.0965
266756,-77.9722
333444,-75.0816
400133,-78.9094
466822,-77.29
533511,-77.7824
600200,-80.0804
666889,-77.9622
733578,-79.5864
800267,-78.5137
866956,-78.9087
933645,-78.9456
1.00033e+06,-78.3318
1.06702e+06,-77.6989
1.13371e+06,-78.0505
1.2004e+06,-77.5207
1.26709e+06,-77.4384
1.33378e+06,-78.1402
1.40047e+06,-77.8083
1.46716e+06,-77.6033
1.53384e+06,-78.2031
1.60053e+06,-78.9776
1.66722e+06,-79.139
1.73391e+06,-78.1625
1.8006e+06,-79.0782
1.86729e+06,-77.2541
1.93398e+06,-77.397
2.00067e+06,-77.2631
2.06736e+06,-77.8604
2.13404e+06,-78.9517
2.20073e+06,-78.6183
2.26742e+06,-78.7533
2.33411e+06,-78.1488
2.4008e+06,-77.5021
2.46749e+06,-76.5695
2.53418e+06,-77.0422
2.60087e+06,-78.5546
2.66756e+06,-77.4977
2.73424e+06,-77.6126
2.80093e+06,-78.3729
2.86762e+06,-77.1222
2.93431e+06,-75.6366
3.001e+06,-76.2879
3.06769e+06,-75.6215
3.13438e+06,-74.8056
3.20107e+06,-71.2827
3.26776e+06,-68.3356
3.33444e+06,-68.44
3.40113e+06,-68.2281
3.46782e+06,-77.068
3.53451e+06,-77.7007
3.6012e+06,-76.7271
3.66789e+06,-75.2965
3.73458e+06,-74.8584
3.80127e+06,-70.1333
3.86796e+06,-74.5323
3.93464e+06,-73.9987
4.00133e+06,-75.028
4.06802e+06,-74.0478
4.13471e+06,-74.8031
4.2014e+06,-75.6335
4.26809e+06,-75.4392
4.33478e+06,-77.4166
4.40147e+06,-74.5783
4.46816e+06,-75.3462
4.53484e+06,-73.5272
4.60153e+06,-76.0002
4.66822e+06,-74.9107
4.73491e+06,-73.4523
4.8016e+06,-73.8016
4.86829e+06,-72.2641
4.93498e+06,-71.6994
5.00167e+06,-71.5958
5.06836e+06,-70.9025
5.13505e+06,-72.8782
5.20173e+06,-72.5757
5.26842e+06,-73.7596
5.33511e+06,-75.1196
5.4018e+06,-75.6634
5.46849e+06,-76.1105
5.53518e+06,-74.6603
5.60187e+06,-73.2353
5.66856e+06,-73.5525
5.73525e+06,-74.4703
5.80193e+06,-74.8397
5.86862e+06,-74.3306
5.93531e+06,-73.5028
6.002e+06,-73.7291
6.06869e+06,-73.7433
6.13538e+06,-75.1683
6.20207e+06,-74.4614
6.26876e+06,-73.4578
6.33545e+06,-74.157
6.40213e+06,-72.556
6.46882e+06,-72.6293
6.53551e+06,-73.5574
6.6022e+06,-63.1911
6.66889e+06,-73.9969
6.73558e+06,-75.7381
6.80227e+06,-77.2729
6.86896e+06,-78.3875
6.93565e+06,-78.2817
7.00233e+06,-78.8059
7.06902e+06,-79.9944
7.13571e+06,-79.3681
7.2024e+06,-79.9793
7.26909e+06,-78.6817
7.33578e+06,-80.1226
7.40247e+06,-79.5152
7.46916e+06,-78.329
7.53585e+06,-78.7917
7.60253e+06,-81.0204
7.66922e+06,-79.4219
7.73591e+06,-79.9193
7.8026e+06,-79.8705
7.86929e+06,-80.3182
7.93598e+06,-79.1985
8.00267e+06,-80.0464
8.06936e+06,-80.0215
8.13605e+06,-80.1556
8.20273e+06,-79.4068
8.26942e+06,-80.3121
8.33611e+06,-79.0198
8.4028e+06,-79.2468
8.46949e+06,-79.3649
8.53618e+06,-78.2054
8.60287e+06,-80.2502
8.66956e+06,-78.1612
8.73625e+06,-79.7335
8.80293e+06,-79.2685
8.86962e+06,-79.0537
8.93631e+06,-79.9359
9.003e+06,-78.2123
9.06969e+06,-77.5006
9.13638e+06,-78.2562
9.20307e+06,-79.9941
9.26976e+06,-79.2177
9.33645e+06,-79.6939
9.40313e+06,-79.4269
9.46982e+06,-79.5521
9.53651e+06,-80.2378
9.6032e+06,-79.2983
9.66989e+06,-78.8769
9.73658e+06,-80.3034
9.80327e+06,-79.1894
9.86996e+06,-79.7546
9.93665e+06,-79.2884
1.00033e+07,-79.87
1.007e+07,-79.0188
1.01367e+07,-78.132
1.02034e+07,-76.9689
1.02701e+07,-61.6884
1.03368e+07,-76.5369
1.04035e+07,-78.133
1.04702e+07,-78.892
1.05368e+07,-78.6138
1.06035e+07,-78.5086
1.06702e+07,-80.2643
1.07369e+07,-78.641
1.08036e+07,-78.4567
1.08703e+07,-78.2278
1.0937e+07,-78.6346
1.10037e+07,-79.3862
1.10704e+07,-79.0563
1.1137e+07,-75.9028
1.12037e+07,-78.7719
1.12704e+07,-78.2758
1.13371e+07,-78.3646
1.14038e+07,-78.9035
1.14705e+07,-79.1767
1.15372e+07,-78.4404
1.16039e+07,-77.3263
1.16706e+07,-77.8954
1.17372e+07,-79.6726
1.18039e+07,-78.0779
1.18706e+07,-75.5006
1.19373e+07,-75.3454
1.2004e+07,-78.196
1.20707e+07,-79.7318
1.21374e+07,-79.6047
1.22041e+07,-78.0492
1.22708e+07,-80.5333
1.23374e+07,-78.8626
1.24041e+07,-80.1047
1.24708e+07,-79.847
1.25375e+07,-78.3506
1.26042e+07,-80.0241
1.26709e+07,-79.3786
1.27376e+07,-79.5805
1.28043e+07,-78.8123
1.2871e+07,-78.6306
1.29376e+07,-79.4568
1.30043e+07,-80.5569
1.3071e+07,-79.9094
1.31377e+07,-79.1976
1.32044e+07,-79.1487
1.32711e+07,-79.5161
1.33378e+07,-79.2075
1.34045e+07,-79.3514
1.34712e+07,-76.8691
1.35378e+07,-76.1474
1.36045e+07,-79.3403
1.36712e+07,-80.5406
1.37379e+07,-80.8304
1.38046e+07,-79.0253
1.38713e+07,-79.9934
1.3938e+07,-79.4533
1.40047e+07,-79.6865
1.40714e+07,-80.3376
1.4138e+07,-79.8981
1.42047e+07,-79.7955
1.42714e+07,-80.2913
1.43381e+07,-79.2642
1.44048e+07,-80.4648
1.44715e+07,-81.1363
1.45382e+07,-79.7853
1.46049e+07,-80.587
1.46716e+07,-79.2312
1.47382e+07,-79.24
1.48049e+07,-80.7523
1.48716e+07,-81.5774
1.49383e+07,-80.9865
1.5005e+07,-81.2424
1.50717e+07,-81.5393
1.51384e+07,-83.1795
1.52051e+07,-81.4359
1.52718e+07,-81.5954
1.53384e+07,-80.9605
1.54051e+07,-80.5749
1.54718e+07,-63.8161
1.55385e+07,-64.1149
1.56052e+07,-64.4677
1.56719e+07,-80.1008
1.57386e+07,-79.8774
1.58053e+07,-79.922
1.5872e+07,-81.2352
1.59386e+07,-79.8882
1.60053e+07,-81.5924
1.6072e+07,-81.5553
1.61387e+07,-80.8525
1.62054e+07,-81.8947
1.62721e+07,-81.2936
1.63388e+07,-80.6162
1.64055e+07,-81.6257
1.64722e+07,-80.0253
1.65388e+07,-79.8958
1.66055e+07,-80.444
1.66722e+07,-82.0887
1.67389e+07,-81.6169
1.68056e+07,-82.2539
1.68723e+07,-80.8689
1.6939e+07,-81.1131
1.70057e+07,-81.6884
1.70724e+07,-80.5883
1.7139e+07,-82.4039
1.72057e+07,-83.1771
1.72724e+07,-81.9048
1.73391e+07,-80.1
1.74058e+07,-81.1266
1.74725e+07,-83.4351
1.75392e+07,-82.5288
1.76059e+07,-80.7071
1.76726e+07,-82.0418
1.77392e+07,-82.4865
1.78059e+07,-83.5043
1.78726e+07,-82.5329
1.79393e+07,-82.673
1.8006e+07,-82.8895
1.80727e+07,-82.8218
1.81394e+07,-81.1293
1.82061e+07,-82.0407
1.82728e+07,-82.3278
1.83394e+07,-82.215
1.84061e+07,-82.3968
1.84728e+07,-82.5075
1.85395e+07,-82.3991
1.86062e+07,-81.834
1.86729e+07,-82.7783
1.87396e+07,-81.8643
1.88063e+07,-82.1458
1.8873e+07,-81.2898
1.89396e+07,-79.6899
1.90063e+07,-79.7189
1.9073e+07,-81.9918
1.91397e+07,-81.8768
1.92064e+07,-81.7043
1.92731e+07,-82.911
1.93398e+07,-81.3126
1.94065e+07,-82.4727
1.94732e+07,-81.7549
1.95398e+07,-82.8698
1.96065e+07,-82.7531
1.96732e+07,-82.5079
1.97399e+07,-81.3777
1.98066e+07,-82.4627
1.98733e+07,-81.521
1.994e+07,-81.5326
2.00067e+07,-83.1211
2.00734e+07,-82.1809
2.014e+07,-80.9661
2.02067e+07,-82.616
2.02734e+07,-82.1921
2.03401e+07,-81.239
2.04068e+07,-83.0664
2.04735e+07,-81.5397
2.05402e+07,-81.9375
2.06069e+07,-83.2181
2.06736e+07,-81.8161
2.07402e+07,-81.2942
2.08069e+07,-80.387
2.08736e+07,-79.859
2.09403e+07,-77.7666
2.1007e+07,-82.4515
2.10737e+07,-81.2852
2.11404e+07,-81.1554
2.12071e+07,-81.2573
2.12738e+07,-81.3515
2.13404e+07,-79.6416
2.14071e+07,-82.1031
2.14738e+07,-80.5748
2.15405e+07,-81.3133
2.16072e+07,-81.4322
2.16739e+07,-77.7774
2.17406e+07,-77.4131
2.18073e+07,-78.2888
2.1874e+07,-80.5438
2.19406e+07,-80.8108
2.20073e+07,-81.1298
2.2074e+07,-79.6764
2.21407e+07,-79.2416
2.22074e+07,-78.9715
2.22741e+07,-81.0809
2.23408e+07,-81.1674
2.24075e+07,-81.3319
2.24742e+07,-80.4543
2.25408e+07,-80.072
2.26075e+07,-80.8833
2.26742e+07,-80.9651
2.27409e+07,-80.0985
2.28076e+07,-80.5513
2.28743e+07,-80.2827
2.2941e+07,-79.5146
2.30077e+07,-80.4466
2.30744e+07,-78.8507
2.3141e+07,-80.655
2.32077e+07,-80.7235
2.32744e+07,-81.4981
2.33411e+07,-80.6338
2.34078e+07,-80.2856
2.34745e+07,-82.0706
2.35412e+07,-78.713
2.36079e+07,-82.1738
2.36746e+07,-81.3977
2.37412e+07,-80.1852
2.38079e+07,-81.052
2.38746e+07,-81.581
2.39413e+07,-81.1992
2.4008e+07,-79.6458
2.40747e+07,-76.2628
2.41414e+07,-76.034
2.42081e+07,-74.8533
2.42748e+07,-80.845
2.43414e+07,-81.5643
2.44081e+07,-81.7589
2.44748e+07,-81.8623
2.45415e+07,-80.8764
2.46082e+07,-80.4396
2.46749e+07,-80.6571
2.47416e+07,-79.8855
2.48083e+07,-80.5625
2.4875e+07,-76.0174
2.49416e+07,-74.3341
2.50083e+07,-75.3062
2.5075e+07,-80.3335
2.51417e+07,-80.2061
2.52084e+07,-81.2669
2.52751e+07,-81.1661
2.53418e+07,-79.4896
2.54085e+07,-80.6006
2.54752e+07,-80.9273
2.55418e+07,-81.5347
2.56085e+07,-80.6483
2.56752e+07,-78.8846
2.57419e+07,-68.8027
2.58086e+07,-80.3506
2.58753e+07,-80.2438
2.5942e+07,-79.5518
2.60087e+07,-77.8379
2.60754e+07,-78.9623
2.6142e+07,-78.347
2.62087e+07,-77.8942
2.62754e+07,-78.2803
2.63421e+07,-79.5335
2.64088e+07,-79.0231
2.64755e+07,-79.2477
2.65422e+07,-78.2988
2.66089e+07,-78.5138
2.66756e+07,-77.7145
2.67422e+07,-78.5126
2.68089e+07,-76.7335
2.68756e+07,-77.4427
2.69423e+07,-76.0825
2.7009e+07,-76.8575
2.70757e+07,-74.8532
2.71424e+07,-71.1849
2.72091e+07,-69.2254
2.72758e+07,-70.9741
2.73424e+07,-69.7767
2.74091e+07,-69.0232
2.74758e+07,-75.2561
2.75425e+07,-74.5052
2.76092e+07,-73.6048
2.76759e+07,-75.896
2.77426e+07,-73.1286
2.78093e+07,-74.879
2.7876e+07,-74.904
2.79426e+07,-75.3806
2.80093e+07,-74.084
2.8076e+07,-69.4933
2.81427e+07,-65.8579
2.82094e+07,-68.0213
2.82761e+07,-74.6247
2.83428e+07,-72.785
2.84095e+07,-73.3955
2.84762e+07,-73.3901
2.85428e+07,-74.4387
2.86095e+07,-72.7746
2.86762e+07,-74.3713
2.87429e+07,-71.8799
2.88096e+07,-72.2886
2.88763e+07,-67.8968
2.8943e+07,-65.9815
2.90097e+07,-67.5031
2.90764e+07,-72.5166
2.9143e+07,-73.4986
2.92097e+07,-73.2308
2.92764e+07,-73.2184
2.93431e+07,-71.8471
2.94098e+07,-71.3763
2.94765e+07,-73.9309
2.95432e+07,-73.3441
2.96099e+07,-72.1196
2.96766e+07,-68.9801
2.97432e+07,-71.1594
2.98099e+07,-72.8037
2.98766e+07,-72.4614
2.99433e+07,-70.3762
3.001e+07,-71.2957
3.00767e+07,-71.3939
3.01434e+07,-71.9939
3.02101e+07,-71.3251
3.02768e+07,-70.9095
3.03434e+07,-71.4288
3.04101e+07,-69.8962
3.04768e+07,-58.0199
3.05435e+07,-57.6393
3.06102e+07,-58.5162
3.06769e+07,-68.6642
3.07436e+07,-66.2651
3.08103e+07,-64.9429
3.0877e+07,-63.5403
3.09436e+07,-67.1486
3.10103e+07,-67.3522
3.1077e+07,-66.7582
3.11437e+07,-65.7819
3.12104e+07,-65.8847
3.12771e+07,-58.5058
3.13438e+07,-54.2652
3.14105e+07,-55.2801
3.14772e+07,-63.1058
3.15438e+07,-61.4555
3.16105e+07,-62.3334
3.16772e+07,-62.7502
3.17439e+07,-60.883
3.18106e+07,-61.6467
3.18773e+07,-55.9278
3.1944e+07,-56.0571
3.20107e+07,-59.4538
3.20774e+07,-53.0197
3.2144e+07,-51.5463
3.22107e+07,-53.8262
3.22774e+07,-60.7328
3.23441e+07,-60.4563
3.24108e+07,-61.5006
3.24775e+07,-58.7335
3.25442e+07,-61.3847
3.26109e+07,-60.896
3.26776e+07,-60.8751
3.27442e+07,-58.8988
3.28109e+07,-61.4183
3.28776e+07,-50.7358
3.29443e+07,-50.2805
3.3011e+07,-58.4401
3.30777e+07,-60.0291
3.31444e+07,-58.1565
3.32111e+07,-60.375
3.32778e+07,-59.3597
3.33444e+07,-58.5879
3.34111e+07,-57.5913
3.34778e+07,-59.9015
3.35445e+07,-58.0799
3.36112e+07,-58.8975
3.36779e+07,-60.5731
3.37446e+07,-60.9149
3.38113e+07,-59.0153
3.3878e+07,-57.5313
3.39446e+07,-58.6388
3.40113e+07,-63.1671
3.4078e+07,-61.6144
3.41447e+07,-61.167
3.42114e+07,-60.5777
3.42781e+07,-57.8595
3.43448e+07,-61.8509
3.44115e+07,-59.5292
3.44782e+07,-52.9572
3.45448e+07,-52.6416
3.46115e+07,-55.9576
3.46782e+07,-55.527
3.47449e+07,-57.8174
3.48116e+07,-57.5209
3.48783e+07,-57.0079
3.4945e+07,-59.0802
3.50117e+07,-58.6816
3.50784e+07,-57.3756
3.5145e+07,-59.5769
3.52117e+07,-60.0615
3.52784e+07,-59.7123
3.53451e+07,-60.0613
3.54118e+07,-57.7675
3.54785e+07,-54.7029
3.55452e+07,-57.8421
3.56119e+07,-56.5078
3.56786e+07,-56.7308
3.57452e+07,-59.1097
3.58119e+07,-56.7945
3.58786e+07,-56.1395
3.59453e+07,-55.4038
3.6012e+07,-55.774
3.60787e+07,-55.0928
3.61454e+07,-53.5409
3.62121e+07,-53.7224
3.62788e+07,-55.4991
3.63454e+07,-54.749
3.64121e+07,-53.2681
3.64788e+07,-53.434
3.65455e+07,-52.5745
3.66122e+07,-52.4752
3.66789e+07,-52.6884
3.67456e+07,-51.5004
3.68123e+07,-53.4734
3.6879e+07,-54.7698
3.69456e+07,-55.333
3.70123e+07,-53.6578
3.7079e+07,-52.7348
3.71457e+07,-56.2507
3.72124e+07,-57.0985
3.72791e+07,-57.6227
3.73458e+07,-58.3666
3.74125e+07,-57.7737
3.74792e+07,-59.9233
3.75458e+07,-58.9313
3.76125e+07,-59.819
3.76792e+07,-56.7975
3.77459e+07,-58.8626
3.78126e+07,-59.2719
3.78793e+07,-59.61
3.7946e+07,-59.1427
3.80127e+07,-60.262
3.80794e+07,-60.93
3.8146e+07,-59.9808
3.82127e+07,-60.437
3.82794e+07,-58.3657
3.83461e+07,-59.0623
3.84128e+07,-57.0451
3.84795e+07,-57.5942
3.85462e+07,-57.0993
3.86129e+07,-59.9348
3.86796e+07,-57.8946
3.87462e+07,-57.3065
3.88129e+07,-58.9795
3.88796e+07,-59.4883
3.89463e+07,-58.7844
3.9013e+07,-57.5583
3.90797e+07,-59.0147
3.91464e+07,-60.7233
3.92131e+07,-59.5984
3.92798e+07,-59.4449
3.93464e+07,-58.4995
3.94131e+07,-59.5749
3.94798e+07,-57.6243
3.95465e+07,-59.8884
3.96132e+07,-59.517
3.96799e+07,-59.0086
3.97466e+07,-60.1676
3.98133e+07,-57.7775
3.988e+07,-57.8035
3.99466e+07,-57.7288
4.00133e+07,-56.9213
4.008e+07,-57.3584
4.01467e+07,-57.0751
4.02134e+07,-57.9034
4.02801e+07,-56.5598
4.03468e+07,-55.5919
4.04135e+07,-57.1454
4.04802e+07,-56.1645
4.05468e+07,-56.5492
4.06135e+07,-55.6145
4.06802e+07,-53.8959
4.07469e+07,-55.0522
4.08136e+07,-54.8462
4.08803e+07,-54.5815
4.0947e+07,-50.215
4.10137e+07,-48.5242
4.10804e+07,-56.5353
4.1147e+07,-57.0555
4.12137e+07,-55.1111
4.12804e+07,-55.2691
4.13471e+07,-54.4025
4.14138e+07,-55.3792
4.14805e+07,-56.174
4.15472e+07,-56.389
4.16139e+07,-56.1599
4.16806e+07,-57.0188
4.17472e+07,-54.8933
4.18139e+07,-55.4839
4.18806e+07,-55.3534
4.19473e+07,-54.2775
4.2014e+07,-56.1157
4.20807e+07,-54.2832
4.21474e+07,-53.6453
4.22141e+07,-54.8201
4.22808e+07,-54.2458
4.23474e+07,-54.5075
4.24141e+07,-54.0033
4.24808e+07,-55.5413
4.25475e+07,-52.6586
4.26142e+07,-52.6624
4.26809e+07,-56.8417
4.27476e+07,-55.232
4.28143e+07,-52.0556
4.2881e+07,-54.9791
4.29476e+07,-52.9967
4.30143e+07,-53.6514
4.3081e+07,-55.6116
4.31477e+07,-54.5324
4.32144e+07,-55.3722
4.32811e+07,-53.8738
4.33478e+07,-54.0352
4.34145e+07,-54.2831
4.34812e+07,-53.6725
4.35478e+07,-53.9582
4.36145e+07,-55.4578
4.36812e+07,-54.2583
4.37479e+07,-54.9842
4.38146e+07,-54.6244
4.38813e+07,-55.3708
4.3948e+07,-56.1853
4.40147e+07,-53.7391
4.40814e+07,-53.4781
4.4148e+07,-53.5594
4.42147e+07,-54.5965
4.42814e+07,-54.2671
4.43481e+07,-53.3955
4.44148e+07,-57.1592
4.44815e+07,-56.4308
4.45482e+07,-58.1567
4.46149e+07,-56.6874
4.46816e+07,-56.1451
4.47482e+07,-54.9758
4.48149e+07,-56.7576
4.48816e+07,-54.5724
4.49483e+07,-55.6547
4.5015e+07,-52.5763
4.50817e+07,-54.0086
4.51484e+07,-53.1024
4.52151e+07,-52.7765
4.52818e+07,-51.5635
4.53484e+07,-52.0699
4.54151e+07,-54.1446
4.54818e+07,-53.5432
4.55485e+07,-53.0727
4.56152e+07,-53.2353
4.56819e+07,-55.4937
4.57486e+07,-53.1449
4.58153e+07,-53.4366
4.5882e+07,-53.0678
4.59486e+07,-55.3217
4.60153e+07,-54.4294
4.6082e+07,-53.9052
4.61487e+07,-52.7769
4.62154e+07,-55.4411
4.62821e+07,-52.907
4.63488e+07,-54.5785
4.64155e+07,-53.8721
4.64822e+07,-54.0605
4.65488e+07,-55.0416
4.66155e+07,-55.8404
4.66822e+07,-56.1792
4.67489e+07,-55.1453
4.68156e+07,-56.9551
4.68823e+07,-55.3668
4.6949e+07,-56.234
4.70157e+07,-56.045
4.70824e+07,-57.5327
4.7149e+07,-56.2783
4.72157e+07,-56.6086
4.72824e+07,-56.7281
4.73491e+07,-55.4939
4.74158e+07,-57.2726
4.74825e+07,-56.2577
4.75492e+07,-56.4623
4.76159e+07,-56.3758
4.76826e+07,-57.2849
4.77492e+07,-55.4074
4.78159e+07,-55.4035
4.78826e+07,-55.8329
4.79493e+07,-54.2203
4.8016e+07,-54.2545
4.80827e+07,-53.787
4.81494e+07,-53.4474
4.82161e+07,-53.5801
4.82828e+07,-54.8113
4.83494e+07,-52.7879
4.84161e+07,-53.642
4.84828e+07,-52.1949
4.85495e+07,-54.086
4.86162e+07,-51.9916
4.86829e+07,-52.1165
4.87496e+07,-52.7203
4.88163e+07,-54.4924
4.8883e+07,-51.0996
4.89496e+07,-50.3965
4.90163e+07,-51.5621
4.9083e+07,-52.5901
4.91497e+07,-50.4018
4.92164e+07,-50.8142
4.92831e+07,-50.7111
4.93498e+07,-51.4359
4.94165e+07,-51.5135
4.94832e+07,-51.0177
4.95498e+07,-51.0403
4.96165e+07,-50.5249
4.96832e+07,-53.4217
4.97499e+07,-50.2834
4.98166e+07,-50.0806
4.98833e+07,-51.9391
4.995e+07,-53.0521
5.00167e+07,-52.7106
5.00834e+07,-52.2152
5.01501e+07,-51.1085
5.02167e+07,-52.8645
5.02834e+07,-50.9086
5.03501e+07,-51.8011
5.04168e+07,-52.4928
5.04835e+07,-52.5365
5.05502e+07,-49.6911
5.06169e+07,-47.4544
5.06836e+07,-52.7308
5.07503e+07,-52.1862
5.08169e+07,-52.5324
5.08836e+07,-53.4501
5.09503e+07,-52.2226
5.1017e+07,-53.4805
5.10837e+07,-54.4023
5.11504e+07,-53.678
5.12171e+07,-53.479
5.12838e+07,-53.6432
5.13505e+07,-53.8704
5.14171e+07,-53.7402
5.14838e+07,-54.3734
5.15505e+07,-54.4787
5.16172e+07,-55.7993
5.16839e+07,-54.8437
5.17506e+07,-54.6228
5.18173e+07,-54.2688
5.1884e+07,-55.184
5.19507e+07,-55.056
5.20173e+07,-55.3871
5.2084e+07,-53.3462
5.21507e+07,-47.3416
5.22174e+07,-47.0077
5.22841e+07,-55.8223
5.23508e+07,-56.2945
5.24175e+07,-56.3743
5.24842e+07,-56.8389
5.25509e+07,-57.4558
5.26175e+07,-56.3875
5.26842e+07,-55.4823
5.27509e+07,-55.1489
5.28176e+07,-56.562
5.28843e+07,-56.4917
5.2951e+07,-46.4615
5.30177e+07,-46.1472
5.30844e+07,-56.6298
5.31511e+07,-58.2517
5.32177e+07,-57.9122
5.32844e+07,-58.5796
5.33511e+07,-58.3503
5.34178e+07,-58.9146
5.34845e+07,-56.5398
5.35512e+07,-55.8902
5.36179e+07,-54.2459
5.36846e+07,-44.8452
5.37513e+07,-44.3792
5.38179e+07,-43.8531
5.38846e+07,-45.1862
5.39513e+07,-54.478
5.4018e+07,-57.8
5.40847e+07,-58.708
5.41514e+07,-59.5908
5.42181e+07,-59.4473
5.42848e+07,-58.9202
5.43515e+07,-58.8222
5.44181e+07,-55.6855
5.44848e+07,-52.101
5.45515e+07,-41.0718
5.46182e+07,-40.7312
5.46849e+07,-43.9493
5.47516e+07,-58.4001
5.48183e+07,-59.1073
5.4885e+07,-58.5326
5.49517e+07,-59.4034
5.50183e+07,-58.3757
5.5085e+07,-58.1066
5.51517e+07,-58.5857
5.52184e+07,-56.6384
5.52851e+07,-55.1871
5.53518e+07,-53.2329
5.54185e+07,-52.013
5.54852e+07,-52.7675
5.55519e+07,-50.9004
5.56185e+07,-50.8014
5.56852e+07,-50.0729
5.57519e+07,-47.6816
5.58186e+07,-47.4667
5.58853e+07,-46.502
5.5952e+07,-47.6468
5.60187e+07,-47.126
5.60854e+07,-44.8131
5.61521e+07,-43.5506
5.62187e+07,-44.0553
5.62854e+07,-46.6551
5.63521e+07,-45.7108
5.64188e+07,-44.7168
5.64855e+07,-45.2994
5.65522e+07,-44.7991
5.66189e+07,-45.227
5.66856e+07,-42.3197
5.67523e+07,-43.9938
5.68189e+07,-43.3724
5.68856e+07,-41.4772
5.69523e+07,-44.899
5.7019e+07,-43.9415
5.70857e+07,-41.4174
5.71524e+07,-44.3039
5.72191e+07,-40.931
5.72858e+07,-43.2625
5.73525e+07,-41.4392
5.74191e+07,-41.9032
5.74858e+07,-43.0383
5.75525e+07,-42.7296
5.76192e+07,-42.9101
5.76859e+07,-41.4664
5.77526e+07,-42.8854
5.78193e+07,-40.8633
5.7886e+07,-41.5166
5.79527e+07,-41.1005
5.80193e+07,-41.9985
5.8086e+07,-42.5466
5.81527e+07,-43.9084
5.82194e+07,-42.7555
5.82861e+07,-43.2152
5.83528e+07,-43.7085
5.84195e+07,-41.176
5.84862e+07,-42.3761
5.85529e+07,-44.7193
5.86195e+07,-43.0065
5.86862e+07,-42.4235
5.87529e+07,-43.7281
5.88196e+07,-41.1088
5.88863e+07,-42.3974
5.8953e+07,-41.1526
5.90197e+07,-40.6447
5.90864e+07,-41.0603
5.91531e+07,-40.8132
5.92197e+07,-40.4125
5.92864e+07,-40.3907
5.93531e+07,-40.7681
5.94198e+07,-38.4139
5.94865e+07,-42.1203
5.95532e+07,-42.4468
5.96199e+07,-42.2232
5.96866e+07,-42.7571
5.97533e+07,-40.5829
5.98199e+07,-42.4834
5.98866e+07,-42.2135
5.99533e+07,-43.7109
6.002e+07,-42.8142
6.00867e+07,-41.8872
6.01534e+07,-42.1386
6.02201e+07,-41.6031
6.02868e+07,-42.3234
6.03535e+07,-42.754
6.04201e+07,-41.6584
6.04868e+07,-43.1305
6.05535e+07,-41.5479
6.06202e+07,-40.2637
6.06869e+07,-40.4246
6.07536e+07,-41.9835
6.08203e+07,-42.9202
6.0887e+07,-41.4619
6.09537e+07,-39.1047
6.10203e+07,-39.5977
6.1087e+07,-40.1233
6.11537e+07,-43.046
6.12204e+07,-43.1424
6.12871e+07,-42.6768
6.13538e+07,-42.2903
6.14205e+07,-43.4216
6.14872e+07,-42.4849
6.15539e+07,-44.1032
6.16205e+07,-41.9242
6.16872e+07,-43.8934
6.17539e+07,-41.868
6.18206e+07,-43.7762
6.18873e+07,-43.3348
6.1954e+07,-44.0062
6.20207e+07,-44.4751
6.20874e+07,-44.2059
6.21541e+07,-46.0698
6.22207e+07,-45.242
6.22874e+07,-45.1565
6.23541e+07,-44.0522
6.24208e+07,-43.9324
6.24875e+07,-45.8178
6.25542e+07,-44.3709
6.26209e+07,-44.1882
6.26876e+07,-46.338
6.27543e+07,-46.5148
6.28209e+07,-46.2038
6.28876e+07,-46.8065
6.29543e+07,-45.8453
6.3021e+07,-44.5877
6.30877e+07,-44.1652
6.31544e+07,-46.7489
6.32211e+07,-45.724
6.32878e+07,-39.7468
6.33545e+07,-41.4678
6.34211e+07,-40.3225
6.34878e+07,-40.7387
6.35545e+07,-48.8124
6.36212e+07,-48.2169
6.36879e+07,-49.1054
6.37546e+07,-48.447
6.38213e+07,-45.1904
6.3888e+07,-43.7328
6.39547e+07,-52.0276
6.40213e+07,-51.274
6.4088e+07,-52.0364
6.41547e+07,-40.1304
6.42214e+07,-39.9255
6.42881e+07,-48.6708
6.43548e+07,-52.9915
6.44215e+07,-54.5763
6.44882e+07,-51.7187
6.45549e+07,-54.0224
6.46215e+07,-50.6167
6.46882e+07,-50.013
6.47549e+07,-52.8601
6.48216e+07,-53.9824
6.48883e+07,-54.2669
6.4955e+07,-54.6655
6.50217e+07,-54.4274
6.50884e+07,-53.8022
6.51551e+07,-53.9452
6.52217e+07,-55.1048
6.52884e+07,-54.0883
6.53551e+07,-54.0131
6.54218e+07,-52.1676
6.54885e+07,-52.8126
6.55552e+07,-55.3093
6.56219e+07,-57.0545
6.56886e+07,-57.0092
6.57553e+07,-56.1518
6.58219e+07,-56.2251
6.58886e+07,-55.4248
6.59553e+07,-54.7327
6.6022e+07,-49.7666
6.60887e+07,-41.7703
6.61554e+07,-39.0435
6.62221e+07,-37.0367
6.62888e+07,-22.7446
6.63555e+07,-33.4272
6.64221e+07,-33.4411
6.64888e+07,-35.1037
6.65555e+07,-34.8513
6.66222e+07,-35.6676
6.66889e+07,-36.6398
6.67556e+07,-37.8799
6.68223e+07,-34.0773
6.6889e+07,-35.7501
6.69557e+07,-36.0968
6.70223e+07,-34.7763
6.7089e+07,-36.4672
6.71557e+07,-36.2915
6.72224e+07,-36.1614
6.72891e+07,-35.7383
6.73558e+07,-34.556
6.74225e+07,-37.8985
6.74892e+07,-40.4983
6.75559e+07,-40.3216
6.76225e+07,-39.424
6.76892e+07,-39.7923
6.77559e+07,-40.9433
6.78226e+07,-38.8102
6.78893e+07,-38.0298
6.7956e+07,-37.2219
6.80227e+07,-39.7566
6.80894e+07,-41.2534
6.81561e+07,-43.461
6.82227e+07,-42.9971
6.82894e+07,-42.4704
6.83561e+07,-44.7319
6.84228e+07,-45.6411
6.84895e+07,-45.0309
6.85562e+07,-44.9345
6.86229e+07,-44.2218
6.86896e+07,-46.241
6.87563e+07,-47.4411
6.88229e+07,-47.4084
6.88896e+07,-47.4055
6.89563e+07,-46.6728
6.9023e+07,-46.4456
6.90897e+07,-46.5347
6.91564e+07,-44.3212
6.92231e+07,-46.8053
6.92898e+07,-48.2753
6.93565e+07,-48.8595
6.94231e+07,-47.9875
6.94898e+07,-48.8062
6.95565e+07,-39.5217
6.96232e+07,-16.9751
6.96899e+07,-43.9829
6.97566e+07,-44.7165
6.98233e+07,-44.0379
6.989e+07,-43.3571
6.99567e+07,-38.5144
7.00233e+07,-45.6159
7.009e+07,-34.1308
7.01567e+07,-43.6563
7.02234e+07,-44.9163
7.02901e+07,-44.5069
7.03568e+07,-47.1831
7.04235e+07,-47.558
7.04902e+07,-47.0528
7.05569e+07,-45.1741
7.06235e+07,-43.6355
7.06902e+07,-36.8712
7.07569e+07,-45.0938
7.08236e+07,-44.6644
7.08903e+07,-42.0487
7.0957e+07,-27.7658
7.10237e+07,-38.9535
7.10904e+07,-46.8196
7.11571e+07,-46.011
7.12237e+07,-43.5651
7.12904e+07,-41.9813
7.13571e+07,-44.2087
7.14238e+07,-45.4617
7.14905e+07,-44.0233
7.15572e+07,-44.9064
7.16239e+07,-43.0217
7.16906e+07,-45.5114
7.17573e+07,-42.5087
7.18239e+07,-34.3885
7.18906e+07,-47.9144
7.19573e+07,-47.925
7.2024e+07,-47.0216
7.20907e+07,-47.1813
7.21574e+07,-48.4997
7.22241e+07,-48.1146
7.22908e+07,-48.5152
7.23575e+07,-47.0926
7.24241e+07,-49.284
7.24908e+07,-49.0938
7.25575e+07,-48.7052
7.26242e+07,-43.1155
7.26909e+07,-49.2226
7.27576e+07,-49.0735
7.28243e+07,-43.0718
7.2891e+07,-12.7814
7.29577e+07,-9.19967
7.30243e+07,-46.3691
7.3091e+07,-46.6392
7.31577e+07,-47.5229
7.32244e+07,-48.0063
7.32911e+07,-49.3318
7.33578e+07,-49.7807
7.34245e+07,-48.9161
7.34912e+07,-48.4818
7.35579e+07,-44.371
7.36245e+07,-49.157
7.36912e+07,-32.428
7.37579e+07,-50.0507
7.38246e+07,-50.1951
7.38913e+07,-47.4947
7.3958e+07,-49.3833
7.40247e+07,-48.1848
7.40914e+07,-49.0051
7.41581e+07,-47.052
7.42247e+07,-49.1583
7.42914e+07,-47.8769
7.43581e+07,-49.129
7.44248e+07,-44.545
7.44915e+07,-49.5456
7.45582e+07,-49.8773
7.46249e+07,-41.1652
7.46916e+07,-50.0644
7.47583e+07,-50.2713
7.48249e+07,-49.4935
7.48916e+07,-45.1448
7.49583e+07,-48.1932
7.5025e+07,-46.4028
7.50917e+07,-51.2873
7.51584e+07,-50.3613
7.52251e+07,-50.2182
7.52918e+07,-50.7625
7.53585e+07,-50.2207
7.54251e+07,-52.0017
7.54918e+07,-50.1059
7.55585e+07,-46.1635
7.56252e+07,-27.8384
7.56919e+07,-46.5952
7.57586e+07,-48.6725
7.58253e+07,-39.9843
7.5892e+07,-47.4006
7.59587e+07,-38.2596
7.60253e+07,-46.3673
7.6092e+07,-41.0124
7.61587e+07,-42.3037
7.62254e+07,-43.7595
7.62921e+07,-40.8885
7.63588e+07,-44.0891
7.64255e+07,-51.1849
7.64922e+07,-29.7657
7.65589e+07,-49.9064
7.66255e+07,-49.4955
7.66922e+07,-51.0152
7.67589e+07,-51.0265
7.68256e+07,-51.3882
7.68923e+07,-44.4413
7.6959e+07,-26.9236
7.70257e+07,-42.493
7.70924e+07,-51.0232
7.71591e+07,-46.2407
7.72257e+07,-51.7689
7.72924e+07,-48.2649
7.73591e+07,-51.9656
7.74258e+07,-47.5216
7.74925e+07,-49.6955
7.75592e+07,-50.9695
7.76259e+07,-45.5473
7.76926e+07,-48.6218
7.77593e+07,-33.9329
7.78259e+07,-50.5374
7.78926e+07,-36.2338
7.79593e+07,-46.9741
7.8026e+07,-50.7772
7.80927e+07,-51.4917
7.81594e+07,-52.0457
7.82261e+07,-50.8612
7.82928e+07,-51.1668
7.83595e+07,-49.5596
7.84261e+07,-41.1288
7.84928e+07,-39.1734
7.85595e+07,-43.1683
7.86262e+07,-43.0004
7.86929e+07,-50.8791
7.87596e+07,-42.7026
7.88263e+07,-52.2138
7.8893e+07,-51.2003
7.89597e+07,-34.7625
7.90263e+07,-50.308
7.9093e+07,-51.3495
7.91597e+07,-48.1864
7.92264e+07,-49.1598
7.92931e+07,-36.4332
7.93598e+07,-44.2993
7.94265e+07,-42.1945
7.94932e+07,-33.4667
7.95599e+07,-49.4973
7.96265e+07,-48.7112
7.96932e+07,-49.5204
7.97599e+07,-48.3538
7.98266e+07,-48.203
7.98933e+07,-49.0099
7.996e+07,-46.9514
8.00267e+07,-48.617
8.00934e+07,-47.9722
8.01601e+07,-48.6034
8.02267e+07,-49.3197
8.02934e+07,-50.3826
8.03601e+07,-49.3177
8.04268e+07,-49.7155
8.04935e+07,-50.1056
8.05602e+07,-51.0534
8.06269e+07,-50.6759
8.06936e+07,-49.4825
8.07603e+07,-50.7136
8.08269e+07,-50.712
8.08936e+07,-51.2261
8.09603e+07,-52.0811
8.1027e+07,-51.1845
8.10937e+07,-51.3427
8.11604e+07,-51.8824
8.12271e+07,-52.1626
8.12938e+07,-53.989
8.13605e+07,-51.7864
8.14271e+07,-52.9688
8.14938e+07,-53.3836
8.15605e+07,-53.266
8.16272e+07,-52.0916
8.16939e+07,-53.4511
8.17606e+07,-55.1455
8.18273e+07,-54.0411
8.1894e+07,-54.5883
8.19607e+07,-48.2528
8.20273e+07,-41.3365
8.2094e+07,-55.4407
8.21607e+07,-54.907
8.22274e+07,-54.7059
8.22941e+07,-54.5866
8.23608e+07,-55.1248
8.24275e+07,-54.3437
8.24942e+07,-54.966
8.25609e+07,-54.0689
8.26275e+07,-55.1859
8.26942e+07,-54.3439
8.27609e+07,-52.7323
8.28276e+07,-52.9484
8.28943e+07,-50.4506
8.2961e+07,-50.2648
8.30277e+07,-44.9795
8.30944e+07,-46.386
8.31611e+07,-40.8794
8.32277e+07,-21.4064
8.32944e+07,-37.8481
8.33611e+07,-44.911
8.34278e+07,-44.6266
8.34945e+07,-48.0189
8.35612e+07,-50.5789
8.36279e+07,-48.3455
8.36946e+07,-49.1899
8.37613e+07,-52.6216
8.38279e+07,-55.7137
8.38946e+07,-54.8436
8.39613e+07,-57.0706
8.4028e+07,-55.9269
8.40947e+07,-56.7445
8.41614e+07,-57.4097
8.42281e+07,-57.05
8.42948e+07,-54.67
8.43615e+07,-53.537
8.44281e+07,-53.4419
8.44948e+07,-55.8323
8.45615e+07,-55.7728
8.46282e+07,-56.522
8.46949e+07,-57.276
8.47616e+07,-55.3089
8.48283e+07,-54.6914
8.4895e+07,-55.1461
8.49617e+07,-52.0279
8.50283e+07,-53.718
8.5095e+07,-54.5827
8.51617e+07,-51.0049
8.52284e+07,-53.4964
8.52951e+07,-53.2958
8.53618e+07,-54.6422
8.54285e+07,-56.3983
8.54952e+07,-56.4175
8.55619e+07,-57.4411
8.56285e+07,-53.1335
8.56952e+07,-54.4612
8.57619e+07,-59.4181
8.58286e+07,-57.8052
8.58953e+07,-58.1447
8.5962e+07,-58.2528
8.60287e+07,-56.4133
8.60954e+07,-55.108
8.61621e+07,-60.727
8.62287e+07,-57.0812
8.62954e+07,-61.3944
8.63621e+07,-62.2863
8.64288e+07,-62.9604
8.64955e+07,-62.7735
8.65622e+07,-63.9121
8.66289e+07,-64.3707
8.66956e+07,-62.6425
8.67623e+07,-63.4196
8.68289e+07,-56.2109
8.68956e+07,-64.2084
8.69623e+07,-64.9683
8.7029e+07,-67.0321
8.70957e+07,-66.1943
8.71624e+07,-68.1308
8.72291e+07,-66.6191
8.72958e+07,-66.2955
8.73625e+07,-67.7323
8.74291e+07,-69.3649
8.74958e+07,-69.3094
8.75625e+07,-69.9773
8.76292e+07,-55.2256
8.76959e+07,-47.4786
8.77626e+07,-48.3422
8.78293e+07,-50.7227
8.7896e+07,-71.2534
8.79627e+07,-70.6827
8.80293e+07,-57.4134
8.8096e+07,-59.8908
8.81627e+07,-59.9751
8.82294e+07,-68.496
8.82961e+07,-68.2255
8.83628e+07,-55.151
8.84295e+07,-21.604
8.84962e+07,-21.3851
8.85629e+07,-22.278
8.86295e+07,-56.8014
8.86962e+07,-69.6216
8.87629e+07,-71.0942
8.88296e+07,-66.2744
8.88963e+07,-66.4363
8.8963e+07,-69.4264
8.90297e+07,-71.9065
8.90964e+07,-70.4129
8.91631e+07,-72.2511
8.92297e+07,-66.8498
8.92964e+07,-66.8679
8.93631e+07,-68.2646
8.94298e+07,-60.408
8.94965e+07,-58.9342
8.95632e+07,-57.9499
8.96299e+07,-72.4372
8.96966e+07,-70.8189
8.97633e+07,-71.8326
8.98299e+07,-66.6304
8.98966e+07,-66.4649
8.99633e+07,-73.7978
9.003e+07,-74.1361
9.00967e+07,-65.7016
9.01634e+07,-76.3446
9.02301e+07,-77.5619
9.02968e+07,-76.274
9.03635e+07,-77.137
9.04301e+07,-74.6225
9.04968e+07,-72.7253
9.05635e+07,-77.3398
9.06302e+07,-79.3319
9.06969e+07,-79.7213
9.07636e+07,-79.1708
9.08303e+07,-78.4933
9.0897e+07,-74.077
9.09637e+07,-80.0284
9.10303e+07,-77.8192
9.1097e+07,-76.0299
9.11637e+07,-75.3041
9.12304e+07,-70.9718
9.12971e+07,-70.0798
9.13638e+07,-74.5075
9.14305e+07,-70.9221
9.14972e+07,-63.7107
9.15639e+07,-73.2088
9.16305e+07,-74.0096
9.16972e+07,-72.8531
9.17639e+07,-71.4376
9.18306e+07,-71.2626
9.18973e+07,-72.55
9.1964e+07,-77.1761
9.20307e+07,-72.0539
9.20974e+07,-73.515
9.21641e+07,-72.8651
9.22307e+07,-66.429
9.22974e+07,-66.2849
9.23641e+07,-66.8239
9.24308e+07,-76.2314
9.24975e+07,-76.3611
9.25642e+07,-76.0552
9.26309e+07,-77.3625
9.26976e+07,-78.3496
9.27643e+07,-77.3393
9.28309e+07,-75.1638
9.28976e+07,-76.0285
9.29643e+07,-77.4004
9.3031e+07,-72.5646
9.30977e+07,-70.4708
9.31644e+07,-72.0181
9.32311e+07,-77.3802
9.32978e+07,-75.2468
9.33645e+07,-73.9993
9.34311e+07,-74.7555
9.34978e+07,-73.1943
9.35645e+07,-66.9812
9.36312e+07,-75.0473
9.36979e+07,-75.2233
9.37646e+07,-75.2528
9.38313e+07,-72.5089
9.3898e+07,-71.1894
9.39647e+07,-77.3848
9.40313e+07,-76.2798
9.4098e+07,-76.0143
9.41647e+07,-76.0884
9.42314e+07,-76.6925
9.42981e+07,-76.6659
9.43648e+07,-75.7149
9.44315e+07,-76.2875
9.44982e+07,-76.0911
9.45649e+07,-75.7553
9.46315e+07,-74.7047
9.46982e+07,-74.8527
9.47649e+07,-76.4053
9.48316e+07,-76.66
9.48983e+07,-74.7191
9.4965e+07,-74.9099
9.50317e+07,-75.3116
9.50984e+07,-65.8076
9.51651e+07,-67.6359
9.52317e+07,-77.5842
9.52984e+07,-79.0897
9.53651e+07,-79.3749
9.54318e+07,-79.6068
9.54985e+07,-79.0488
9.55652e+07,-78.7968
9.56319e+07,-79.9089
9.56986e+07,-79.0277
9.57653e+07,-79.7841
9.58319e+07,-80.4066
9.58986e+07,-79.9995
9.59653e+07,-79.0257
9.6032e+07,-78.9837
9.60987e+07,-79.1133
9.61654e+07,-80.0304
9.62321e+07,-78.8636
9.62988e+07,-77.7542
9.63655e+07,-78.9812
9.64321e+07,-79.2379
9.64988e+07,-79.5805
9.65655e+07,-78.5633
9.66322e+07,-78.8126
9.66989e+07,-80.951
9.67656e+07,-78.8499
9.68323e+07,-79.2198
9.6899e+07,-78.2819
9.69657e+07,-81.0537
9.70323e+07,-75.8346
9.7099e+07,-76.0454
9.71657e+07,-73.3637
9.72324e+07,-78.7675
9.72991e+07,-79.3375
9.73658e+07,-80.6101
9.74325e+07,-80.272
9.74992e+07,-77.7156
9.75659e+07,-78.9308
9.76325e+07,-80.5993
9.76992e+07,-80.8402
9.77659e+07,-81.4987
9.78326e+07,-77.2811
9.78993e+07,-77.0568
9.7966e+07,-78.9084
9.80327e+07,-79.7617
9.80994e+07,-80.3895
9.81661e+07,-80.6483
9.82327e+07,-79.7709
9.82994e+07,-80.3708
9.83661e+07,-80.376
9.84328e+07,-81.3194
9.84995e+07,-80.0156
9.85662e+07,-79.0824
9.86329e+07,-80.3254
9.86996e+07,-75.292
9.87663e+07,-63.3414
9.88329e+07,-63.2092
9.88996e+07,-80.1708
9.89663e+07,-81.3602
9.9033e+07,-80.6684
9.90997e+07,-79.6978
9.91664e+07,-80.4883
9.92331e+07,-77.9095
9.92998e+07,-80.1287
9.93665e+07,-80.3571
9.94331e+07,-81.8695
9.94998e+07,-80.5004
9.95665e+07,-79.9092
9.96332e+07,-81.174
9.96999e+07,-81.1547
9.97666e+07,-79.867
9.98333e+07,-80.4862
9.99e+07,-81.0906
9.99667e+07,-79.8519
1.00033e+08,-80.5255
1.001e+08,-80.7259
1.00167e+08,-80.3139
1.00233e+08,-80.9275
1.003e+08,-80.4915
1.00367e+08,-80.0154
1.00433e+08,-81.3396
1.005e+08,-80.1812
1.00567e+08,-80.9926
1.00634e+08,-81.9495
1.007e+08,-80.4943
1.00767e+08,-80.3094
1.00834e+08,-81.3173
1.009e+08,-81.653
1.00967e+08,-81.5763
1.01034e+08,-81.3479
1.011e+08,-80.5732
1.01167e+08,-80.2921
1.01234e+08,-79.7216
1.013e+08,-80.4956
1.01367e+08,-80.7704
1.01434e+08,-81.8476
1.01501e+08,-80.9702
1.01567e+08,-79.9926
1.01634e+08,-80.5986
1.01701e+08,-81.6204
1.01767e+08,-80.6598
1.01834e+08,-79.3441
1.01901e+08,-77.2365
1.01967e+08,-76.5211
1.02034e+08,-80.5809
1.02101e+08,-80.1272
1.02167e+08,-80.6182
1.02234e+08,-81.9685
1.02301e+08,-80.3982
1.02367e+08,-80.3517
1.02434e+08,-81.3631
1.02501e+08,-81.3949
1.02568e+08,-82.4381
1.02634e+08,-80.6949
1.02701e+08,-80.4038
1.02768e+08,-80.1502
1.02834e+08,-82.1526
1.02901e+08,-80.9443
1.02968e+08,-81.127
1.03034e+08,-81.6104
1.03101e+08,-81.6498
1.03168e+08,-81.236
1.03234e+08,-80.3912
1.03301e+08,-80.359
1.03368e+08,-79.7216
1.03434e+08,-65.1988
1.03501e+08,-64.8599
1.03568e+08,-64.2479
1.03635e+08,-78.832
1.03701e+08,-78.793
1.03768e+08,-82.5688
1.03835e+08,-80.8273
1.03901e+08,-78.0732
1.03968e+08,-72.3043
1.04035e+08,-70.8101
1.04101e+08,-70.0132
1.04168e+08,-69.4633
1.04235e+08,-54.9972
1.04301e+08,-54.1361
1.04368e+08,-55.0086
1.04435e+08,-65.2079
1.04502e+08,-62.9767
1.04568e+08,-81.8479
1.04635e+08,-81.6249
1.04702e+08,-71.1509
1.04768e+08,-79.3017
1.04835e+08,-81.358
1.04902e+08,-77.8626
1.04968e+08,-70.9411
1.05035e+08,-49.1435
1.05102e+08,-48.3825
1.05168e+08,-47.7043
1.05235e+08,-71.9393
1.05302e+08,-80.3382
1.05368e+08,-81.28
1.05435e+08,-72.4528
1.05502e+08,-72.319
1.05569e+08,-73.9915
1.05635e+08,-82.2703
1.05702e+08,-63.1194
1.05769e+08,-64.5431
1.05835e+08,-48.2715
1.05902e+08,-43.7504
1.05969e+08,-47.0839
1.06035e+08,-66.0248
1.06102e+08,-65.1587
1.06169e+08,-70.8459
1.06235e+08,-56.8144
1.06302e+08,-56.2481
1.06369e+08,-57.0786
1.06435e+08,-69.1022
1.06502e+08,-69.3666
1.06569e+08,-80.9075
1.06636e+08,-59.8096
1.06702e+08,-60.1805
1.06769e+08,-65.4056
1.06836e+08,-80.3497
1.06902e+08,-81.3038
1.06969e+08,-81.1472
1.07036e+08,-70.4375
1.07102e+08,-69.2498
1.07169e+08,-70.6885
1.07236e+08,-81.924
1.07302e+08,-67.7017
1.07369e+08,-65.7148
1.07436e+08,-44.2704
1.07503e+08,-44.465
1.07569e+08,-48.7344
1.07636e+08,-65.91
1.07703e+08,-68.9907
1.07769e+08,-74.4628
1.07836e+08,-55.9912
1.07903e+08,-56.401
1.07969e+08,-58.9252
1.08036e+08,-73.2641
1.08103e+08,-73.1471
1.08169e+08,-82.826
1.08236e+08,-82.3446
1.08303e+08,-80.812
1.08369e+08,-82.4825
1.08436e+08,-82.6682
1.08503e+08,-81.6895
1.0857e+08,-81.6354
1.08636e+08,-82.5471
1.08703e+08,-81.1912
1.0877e+08,-81.7212
1.08836e+08,-81.2093
1.08903e+08,-80.9856
1.0897e+08,-81.421
1.09036e+08,-80.362
1.09103e+08,-80.7514
1.0917e+08,-80.8176
1.09236e+08,-81.2318
1.09303e+08,-79.8659
1.0937e+08,-79.3335
1.09436e+08,-80.7883
1.09503e+08,-80.806
1.0957e+08,-80.0962
1.09637e+08,-79.2549
1.09703e+08,-79.0706
1.0977e+08,-79.6761
1.09837e+08,-78.9779
1.09903e+08,-79.1166
1.0997e+08,-79.1663
1.10037e+08,-79.3955
1.10103e+08,-77.0575
1.1017e+08,-78.718
1.10237e+08,-78.0234
1.10303e+08,-77.6193
1.1037e+08,-78.0356
1.10437e+08,-76.4999
1.10504e+08,-77.8681
1.1057e+08,-77.1553
1.10637e+08,-78.2827
1.10704e+08,-78.0953
1.1077e+08,-76.7935
1.10837e+08,-78.3292
1.10904e+08,-77.1109
1.1097e+08,-77.2448
1.11037e+08,-77.3684
1.11104e+08,-76.7929
1.1117e+08,-76.027
1.11237e+08,-76.9742
1.11304e+08,-76.5306
1.1137e+08,-75.6608
1.11437e+08,-75.7467
1.11504e+08,-77.1064
1.11571e+08,-75.407
1.11637e+08,-75.9049
1.11704e+08,-75.4981
1.11771e+08,-76.5962
1.11837e+08,-74.153
1.11904e+08,-77.403
1.11971e+08,-77.1129
1.12037e+08,-77.4495
1.12104e+08,-77.0701
1.12171e+08,-77.9472
1.12237e+08,-76.3814
1.12304e+08,-76.6999
1.12371e+08,-75.2807
1.12437e+08,-77.1393
1.12504e+08,-77.4605
1.12571e+08,-76.2552
1.12638e+08,-77.1258
1.12704e+08,-77.0142
1.12771e+08,-76.6736
1.12838e+08,-75.7481
1.12904e+08,-76.0863
1.12971e+08,-74.5046
1.13038e+08,-77.0512
1.13104e+08,-76.9015
1.13171e+08,-76.459
1.13238e+08,-75.8807
1.13304e+08,-76.3022
1.13371e+08,-77.2368
1.13438e+08,-76.4959
1.13505e+08,-76.6851
1.13571e+08,-77.6243
1.13638e+08,-76.3489
1.13705e+08,-75.6568
1.13771e+08,-76.3753
1.13838e+08,-75.4408
1.13905e+08,-77.8795
1.13971e+08,-76.7197
1.14038e+08,-77.9749
1.14105e+08,-76.8339
1.14171e+08,-77.0229
1.14238e+08,-77.9646
1.14305e+08,-75.3783
1.14371e+08,-77.7677
1.14438e+08,-76.3575
1.14505e+08,-77.5226
1.14572e+08,-77.5116
1.14638e+08,-78.6964
1.14705e+08,-77.4585
1.14772e+08,-79.1201
1.14838e+08,-78.8131
1.14905e+08,-77.7701
1.14972e+08,-77.1082
1.15038e+08,-77.1277
1.15105e+08,-77.5684
1.15172e+08,-77.1207
1.15238e+08,-77.7032
1.15305e+08,-78.4643
1.15372e+08,-78.8994
1.15438e+08,-78.4121
1.15505e+08,-78.2735
1.15572e+08,-77.4002
1.15639e+08,-76.3558
1.15705e+08,-76.4215
1.15772e+08,-76.5474
1.15839e+08,-76.3415
1.15905e+08,-77.236
1.15972e+08,-77.0908
1.16039e+08,-76.3656
1.16105e+08,-77.6583
1.16172e+08,-77.5604
1.16239e+08,-76.8799
1.16305e+08,-77.461
1.16372e+08,-77.4814
1.16439e+08,-78.1193
1.16506e+08,-78.2682
1.16572e+08,-78.6723
1.16639e+08,-79.7347
1.16706e+08,-78.4631
1.16772e+08,-77.4077
1.16839e+08,-77.9033
1.16906e+08,-78.163
1.16972e+08,-76.1251
1.17039e+08,-77.3213
1.17106e+08,-77.6062
1.17172e+08,-77.1961
1.17239e+08,-77.2789
1.17306e+08,-76.2776
1.17372e+08,-76.6675
1.17439e+08,-76.0575
1.17506e+08,-75.8072
1.17573e+08,-76.7174
1.17639e+08,-76.1165
1.17706e+08,-75.2989
1.17773e+08,-76.1298
1.17839e+08,-75.2833
1.17906e+08,-75.8422
1.17973e+08,-76.258
1.18039e+08,-76.2648
1.18106e+08,-76.277
1.18173e+08,-74.6792
1.18239e+08,-75.1787
1.18306e+08,-75.565
1.18373e+08,-77.2013
1.18439e+08,-77.1664
1.18506e+08,-76.5418
1.18573e+08,-77.1876
1.1864e+08,-76.858
1.18706e+08,-76.7492
1.18773e+08,-77.3411
1.1884e+08,-75.7834
1.18906e+08,-76.2746
1.18973e+08,-66.4447
1.1904e+08,-66.063
1.19106e+08,-77.0294
1.19173e+08,-75.2344
1.1924e+08,-76.7953
1.19306e+08,-78.7819
1.19373e+08,-77.4213
1.1944e+08,-78.4402
1.19507e+08,-78.9795
1.19573e+08,-76.649
1.1964e+08,-78.1132
1.19707e+08,-78.3337
1.19773e+08,-79.4212
1.1984e+08,-78.0802
1.19907e+08,-79.0639
1.19973e+08,-77.3321
1.2004e+08,-77.7596
1.20107e+08,-77.1902
1.20173e+08,-77.9996
1.2024e+08,-78.8481
1.20307e+08,-79.5066
1.20373e+08,-78.74
1.2044e+08,-77.5178
1.20507e+08,-78.7293
1.20574e+08,-71.0785
1.2064e+08,-78.6154
1.20707e+08,-79.3256
1.20774e+08,-78.7636
1.2084e+08,-78.0146
1.20907e+08,-78.9739
1.20974e+08,-78.9908
1.2104e+08,-78.6842
1.21107e+08,-79.2968
1.21174e+08,-79.4211
1.2124e+08,-79.9805
1.21307e+08,-74.3596
1.21374e+08,-78.5409
1.2144e+08,-78.6596
1.21507e+08,-79.2809
1.21574e+08,-80.1273
1.21641e+08,-77.7974
1.21707e+08,-79.5757
1.21774e+08,-79.522
1.21841e+08,-78.7096
1.21907e+08,-80.55
1.21974e+08,-79.502
1.22041e+08,-79.7375
1.22107e+08,-77.4049
1.22174e+08,-77.5766
1.22241e+08,-78.7477
1.22307e+08,-78.5933
1.22374e+08,-78.3925
1.22441e+08,-78.3641
1.22508e+08,-77.9399
1.22574e+08,-76.9835
1.22641e+08,-76.4976
1.22708e+08,-74.633
1.22774e+08,-75.6785
1.22841e+08,-76.9203
1.22908e+08,-74.0316
1.22974e+08,-76.0319
1.23041e+08,-75.8226
1.23108e+08,-76.2013
1.23174e+08,-75.8825
1.23241e+08,-75.5817
1.23308e+08,-76.2945
1.23374e+08,-75.0587
1.23441e+08,-76.2861
1.23508e+08,-75.8312
1.23575e+08,-75.0731
1.23641e+08,-75.5602
1.23708e+08,-76.1732
1.23775e+08,-73.6186
1.23841e+08,-76.111
1.23908e+08,-76.5615
1.23975e+08,-76.0475
1.24041e+08,-76.2269
1.24108e+08,-77.0976
1.24175e+08,-75.821
1.24241e+08,-76.7384
1.24308e+08,-77.1405
1.24375e+08,-76.9206
1.24441e+08,-76.5839
1.24508e+08,-77.0645
1.24575e+08,-77.8386
1.24642e+08,-77.1279
1.24708e+08,-76.9043
1.24775e+08,-76.7036
1.24842e+08,-78.0158
1.24908e+08,-77.9684
1.24975e+08,-78.0821
1.25042e+08,-77.9853
1.25108e+08,-79.1081
1.25175e+08,-78.7402
1.25242e+08,-78.6744
1.25308e+08,-78.1565
1.25375e+08,-79.2724
1.25442e+08,-79.6793
1.25509e+08,-79.4226
1.25575e+08,-80.2898
1.25642e+08,-78.9358
1.25709e+08,-80.1076
1.25775e+08,-78.6679
1.25842e+08,-78.8773
1.25909e+08,-79.4486
1.25975e+08,-79.2473
1.26042e+08,-80.2341
1.26109e+08,-80.5304
1.26175e+08,-80.623
1.26242e+08,-80.4402
1.26309e+08,-77.6607
1.26375e+08,-80.9259
1.26442e+08,-81.1216
1.26509e+08,-80.9437
1.26576e+08,-79.9655
1.26642e+08,-81.3241
1.26709e+08,-81.5057
1.26776e+08,-80.9605
1.26842e+08,-80.5728
1.26909e+08,-81.9363
1.26976e+08,-81.8728
1.27042e+08,-79.0228
1.27109e+08,-81.6648
1.27176e+08,-81.4688
1.27242e+08,-82.4258
1.27309e+08,-80.5243
1.27376e+08,-81.8419
1.27442e+08,-82.0136
1.27509e+08,-79.9138
1.27576e+08,-80.3653
1.27643e+08,-82.037
1.27709e+08,-82.4595
1.27776e+08,-81.4012
1.27843e+08,-81.24
1.27909e+08,-81.3836
1.27976e+08,-81.0399
1.28043e+08,-81.8125
1.28109e+08,-82.0834
1.28176e+08,-76.0427
1.28243e+08,-80.8775
1.28309e+08,-81.0597
1.28376e+08,-81.7203
1.28443e+08,-81.255
1.2851e+08,-81.0773
1.28576e+08,-80.5328
1.28643e+08,-79.8664
1.2871e+08,-81.4207
1.28776e+08,-80.3328
1.28843e+08,-80.9481
1.2891e+08,-79.6668
1.28976e+08,-80.5268
1.29043e+08,-78.1443
1.2911e+08,-79.1749
1.29176e+08,-78.2556
1.29243e+08,-78.4629
1.2931e+08,-80.5333
1.29376e+08,-80.1515
1.29443e+08,-79.7995
1.2951e+08,-79.4506
1.29577e+08,-78.6901
1.29643e+08,-78.7358
1.2971e+08,-78.2886
1.29777e+08,-79.38
1.29843e+08,-79.2182
1.2991e+08,-79.1535
1.29977e+08,-79.4259
1.30043e+08,-79.1218
1.3011e+08,-80.2994
1.30177e+08,-80.4283
1.30243e+08,-79.6162
1.3031e+08,-81.799
1.30377e+08,-82.5523
1.30443e+08,-81.8502
1.3051e+08,-81.0463
1.30577e+08,-81.5708
1.30644e+08,-82.2562
1.3071e+08,-81.2837
1.30777e+08,-80.2623
1.30844e+08,-80.5698
1.3091e+08,-81.4174
1.30977e+08,-81.2197
1.31044e+08,-81.5707
1.3111e+08,-80.1241
1.31177e+08,-80.409
1.31244e+08,-81.2699
1.3131e+08,-82.1168
1.31377e+08,-82.0338
1.31444e+08,-80.6501
1.31511e+08,-81.2744
1.31577e+08,-80.8649
1.31644e+08,-81.9714
1.31711e+08,-81.1624
1.31777e+08,-81.1522
1.31844e+08,-81.8992
1.31911e+08,-81.7592
1.31977e+08,-81.8177
1.32044e+08,-81.0859
1.32111e+08,-80.6879
1.32177e+08,-80.876
1.32244e+08,-81.4976
1.32311e+08,-81.6189
1.32377e+08,-81.3964
1.32444e+08,-80.9841
1.32511e+08,-78.2722
1.32578e+08,-81.8481
1.32644e+08,-81.6813
1.32711e+08,-80.5437
1.32778e+08,-81.0932
1.32844e+08,-81.4562
1.32911e+08,-80.1709
1.32978e+08,-82.6548
1.33044e+08,-79.8
1.33111e+08,-82.1721
1.33178e+08,-81.5546
1.33244e+08,-81.7043
1.33311e+08,-80.6331
1.33378e+08,-81.1887
1.33444e+08,-82.5634
1.33511e+08,-82.1039
1.33578e+08,-81.7536
1.33645e+08,-73.0309
1.33711e+08,-81.5236
1.33778e+08,-80.4608
1.33845e+08,-81.6826
1.33911e+08,-83.0445
1.33978e+08,-81.6781
1.34045e+08,-79.848
1.34111e+08,-82.2046
1.34178e+08,-81.8116
1.34245e+08,-81.5839
1.34311e+08,-83.2449
1.34378e+08,-81.2365
1.34445e+08,-82.4614
1.34512e+08,-80.9844
1.34578e+08,-82.2817
1.34645e+08,-81.924
1.34712e+08,-81.4623
1.34778e+08,-81.5901
1.34845e+08,-81.9864
1.34912e+08,-80.9783
1.34978e+08,-81.6295
1.35045e+08,-81.5711
1.35112e+08,-82.1825
1.35178e+08,-81.442
1.35245e+08,-81.1261
1.35312e+08,-81.6716
1.35378e+08,-82.2316
1.35445e+08,-81.7777
1.35512e+08,-81.9921
1.35579e+08,-82.5284
1.35645e+08,-81.6931
1.35712e+08,-81.3846
1.35779e+08,-82.1157
1.35845e+08,-81.702
1.35912e+08,-79.7619
1.35979e+08,-80.5312
1.36045e+08,-81.6867
1.36112e+08,-79.8074
1.36179e+08,-82.34
1.36245e+08,-80.9524
1.36312e+08,-82.3501
1.36379e+08,-82.1693
1.36445e+08,-82.0065
1.36512e+08,-82.0418
1.36579e+08,-80.3654
1.36646e+08,-81.5083
1.36712e+08,-81.4674
1.36779e+08,-82.4551
1.36846e+08,-81.5745
1.36912e+08,-82.6367
1.36979e+08,-82.4611
1.37046e+08,-81.3116
1.37112e+08,-81.0606
1.37179e+08,-81.3936
1.37246e+08,-81.5545
1.37312e+08,-81.2242
1.37379e+08,-81.9744
1.37446e+08,-81.1419
1.37513e+08,-81.7866
1.37579e+08,-82.5475
1.37646e+08,-81.5312
1.37713e+08,-82.5771
1.37779e+08,-82.1661
1.37846e+08,-81.7423
1.37913e+08,-81.999
1.37979e+08,-82.5028
1.38046e+08,-81.7096
1.38113e+08,-82.4263
1.38179e+08,-81.2702
1.38246e+08,-82.6691
1.38313e+08,-81.7631
1.38379e+08,-82.6913
1.38446e+08,-82.4351
1.38513e+08,-81.821
1.3858e+08,-81.9583
1.38646e+08,-82.381
1.38713e+08,-82.5581
1.3878e+08,-82.9438
1.38846e+08,-82.6492
1.38913e+08,-82.1648
1.3898e+08,-83.1769
1.39046e+08,-83.0948
1.39113e+08,-81.3957
1.3918e+08,-82.5393
1.39246e+08,-82.4667
1.39313e+08,-81.3111
1.3938e+08,-82.649
1.39446e+08,-82.3489
1.39513e+08,-82.6133
1.3958e+08,-82.586
1.39647e+08,-81.365
1.39713e+08,-82.7396
1.3978e+08,-82.1183
1.39847e+08,-81.9523
1.39913e+08,-81.6679
1.3998e+08,-82.5409
1.40047e+08,-82.7566
1.40113e+08,-82.8663
1.4018e+08,-82.6623
1.40247e+08,-80.7997
1.40313e+08,-82.8213
1.4038e+08,-82.1867
1.40447e+08,-81.9016
1.40514e+08,-82.579
1.4058e+08,-82.3516
1.40647e+08,-81.9108
1.40714e+08,-82.4105
1.4078e+08,-83.0899
1.40847e+08,-82.0849
1.40914e+08,-81.3024
1.4098e+08,-82.3299
1.41047e+08,-82.4645
1.41114e+08,-82.1995
1.4118e+08,-81.6377
1.41247e+08,-82.7868
1.41314e+08,-80.9715
1.4138e+08,-82.7115
1.41447e+08,-82.9039
1.41514e+08,-81.5123
1.41581e+08,-81.2413
1.41647e+08,-82.835
1.41714e+08,-83.0992
1.41781e+08,-81.2004
1.41847e+08,-82.0991
1.41914e+08,-82.2857
1.41981e+08,-82.9518
1.42047e+08,-82.5521
1.42114e+08,-82.64
1.42181e+08,-83.0591
1.42247e+08,-82.7518
1.42314e+08,-82.5693
1.42381e+08,-82.7391
1.42447e+08,-83.0166
1.42514e+08,-81.6691
1.42581e+08,-82.1958
1.42648e+08,-82.6592
1.42714e+08,-82.0564
1.42781e+08,-83.173
1.42848e+08,-79.9873
1.42914e+08,-81.9221
1.42981e+08,-82.2851
1.43048e+08,-81.964
1.43114e+08,-81.2495
1.43181e+08,-83.0515
1.43248e+08,-81.008
1.43314e+08,-82.1427
1.43381e+08,-82.2562
1.43448e+08,-83.0983
1.43515e+08,-81.8821
1.43581e+08,-83.0445
1.43648e+08,-82.3285
1.43715e+08,-82.1946
1.43781e+08,-82.5774
1.43848e+08,-82.9417
1.43915e+08,-81.6897
1.43981e+08,-82.3185
1.44048e+08,-83.7106
1.44115e+08,-82.7182
1.44181e+08,-81.8842
1.44248e+08,-82.0593
1.44315e+08,-81.7459
1.44381e+08,-83.8271
1.44448e+08,-81.717
1.44515e+08,-82.5796
1.44582e+08,-82.7735
1.44648e+08,-82.0382
1.44715e+08,-83.2785
1.44782e+08,-83.3072
1.44848e+08,-83.5742
1.44915e+08,-83.1159
1.44982e+08,-82.6456
1.45048e+08,-82.4458
1.45115e+08,-82.2542
1.45182e+08,-82.8997
1.45248e+08,-81.9833
1.45315e+08,-82.6547
1.45382e+08,-82.0508
1.45448e+08,-81.6574
1.45515e+08,-82.2327
1.45582e+08,-82.4078
1.45649e+08,-81.6248
1.45715e+08,-82.6594
1.45782e+08,-82.6202
1.45849e+08,-83.4298
1.45915e+08,-81.9531
1.45982e+08,-82.5302
1.46049e+08,-81.8808
1.46115e+08,-82.184
1.46182e+08,-82.7027
1.46249e+08,-83.0569
1.46315e+08,-83.0523
1.46382e+08,-81.9819
1.46449e+08,-82.4618
1.46516e+08,-82.4727
1.46582e+08,-82.221
1.46649e+08,-80.5724
1.46716e+08,-83.2343
1.46782e+08,-83.2796
1.46849e+08,-81.4383
1.46916e+08,-81.0739
1.46982e+08,-81.9201
1.47049e+08,-81.243
1.47116e+08,-82.9654
1.47182e+08,-82.3957
1.47249e+08,-81.1006
1.47316e+08,-82.6358
1.47382e+08,-82.9835
1.47449e+08,-81.7258
1.47516e+08,-81.2959
1.47583e+08,-83.6142
1.47649e+08,-82.1835
1.47716e+08,-82.8767
1.47783e+08,-82.3536
1.47849e+08,-82.8121
1.47916e+08,-82.6429
1.47983e+08,-82.1405
1.48049e+08,-82.8264
1.48116e+08,-82.5333
1.48183e+08,-82.1942
1.48249e+08,-82.4521
1.48316e+08,-81.878
1.48383e+08,-82.7607
1.48449e+08,-83.2379
1.48516e+08,-83.7606
1.48583e+08,-82.3739
1.4865e+08,-82.3433
1.48716e+08,-82.033
1.48783e+08,-82.6636
1.4885e+08,-82.9362
1.48916e+08,-83.5825
1.48983e+08,-83.2131
1.4905e+08,-82.314
1.49116e+08,-82.4722
1.49183e+08,-82.6411
1.4925e+08,-83.3365
1.49316e+08,-83.7545
1.49383e+08,-82.9282
1.4945e+08,-82.3598
1.49517e+08,-81.1849
1.49583e+08,-79.3368
1.4965e+08,-82.3245
1.49717e+08,-82.1385
1.49783e+08,-81.611
1.4985e+08,-82.2261
1.49917e+08,-82.3188
1.49983e+08,-83.0207
1.5005e+08,-82.9192
1.50117e+08,-82.1355
1.50183e+08,-81.5976
1.5025e+08,-83.2996
1.50317e+08,-83.4174
1.50383e+08,-82.7535
1.5045e+08,-83.3444
1.50517e+08,-83.4159
1.50584e+08,-82.0552
1.5065e+08,-82.795
1.50717e+08,-82.9544
1.50784e+08,-82.3687
1.5085e+08,-82.7618
1.50917e+08,-83.2193
1.50984e+08,-83.2188
1.5105e+08,-81.8966
1.51117e+08,-82.4572
1.51184e+08,-83.2716
1.5125e+08,-81.0478
1.51317e+08,-83.5299
1.51384e+08,-81.3269
1.5145e+08,-81.082
1.51517e+08,-82.9646
1.51584e+08,-82.9117
1.51651e+08,-82.2795
1.51717e+08,-82.4756
1.51784e+08,-81.7916
1.51851e+08,-81.7488
1.51917e+08,-82.6908
1.51984e+08,-83.2363
1.52051e+08,-82.1357
1.52117e+08,-83.025
1.52184e+08,-82.6497
1.52251e+08,-80.9532
1.52317e+08,-82.2521
1.52384e+08,-82.049
1.52451e+08,-80.9485
1.52518e+08,-82.1432
1.52584e+08,-82.2725
1.52651e+08,-81.8525
1.52718e+08,-82.9313
1.52784e+08,-83.197
1.52851e+08,-82.4061
1.52918e+08,-82.1108
1.52984e+08,-82.0883
1.53051e+08,-82.6393
1.53118e+08,-81.5446
1.53184e+08,-82.0575
1.53251e+08,-81.9483
1.53318e+08,-81.3425
1.53384e+08,-82.6446
1.53451e+08,-77.9245
1.53518e+08,-83.1831
1.53585e+08,-82.0764
1.53651e+08,-82.3546
1.53718e+08,-82.3353
1.53785e+08,-82.0859
1.53851e+08,-81.2949
1.53918e+08,-82.3413
1.53985e+08,-83.3262
1.54051e+08,-82.825
1.54118e+08,-83.0059
1.54185e+08,-82.2567
1.54251e+08,-83.236
1.54318e+08,-82.6924
1.54385e+08,-82.0887
1.54451e+08,-82.5203
1.54518e+08,-82.0951
1.54585e+08,-83.2586
1.54652e+08,-82.0246
1.54718e+08,-82.0752
1.54785e+08,-81.208
1.54852e+08,-81.4562
1.54918e+08,-81.8604
1.54985e+08,-81.9208
1.55052e+08,-82.0874
1.55118e+08,-82.9902
1.55185e+08,-81.7908
1.55252e+08,-82.0566
1.55318e+08,-82.9279
1.55385e+08,-83.1857
1.55452e+08,-82.5282
1.55519e+08,-82.2392
1.55585e+08,-81.7949
1.55652e+08,-82.2196
1.55719e+08,-83.3513
1.55785e+08,-82.4526
1.55852e+08,-83.1366
1.55919e+08,-82.7079
1.55985e+08,-82.6056
1.56052e+08,-83.0732
1.56119e+08,-82.5657
1.56185e+08,-82.488
1.56252e+08,-82.5919
1.56319e+08,-82.9204
1.56385e+08,-82.6026
1.56452e+08,-81.7248
1.56519e+08,-82.5009
1.56586e+08,-81.328
1.56652e+08,-80.9233
1.56719e+08,-82.4495
1.56786e+08,-83.08
1.56852e+08,-82.5061
1.56919e+08,-81.2785
1.56986e+08,-83.2363
1.57052e+08,-82.0175
1.57119e+08,-82.6596
1.57186e+08,-82.1154
1.57252e+08,-81.8536
1.57319e+08,-82.6856
1.57386e+08,-83.3303
1.57452e+08,-82.4593
1.57519e+08,-81.7379
1.57586e+08,-82.7905
1.57653e+08,-82.5658
1.57719e+08,-82.4305
1.57786e+08,-83.1927
1.57853e+08,-81.7814
1.57919e+08,-82.7284
1.57986e+08,-81.4156
1.58053e+08,-82.779
1.58119e+08,-82.6953
1.58186e+08,-82.0895
1.58253e+08,-82.922
1.58319e+08,-82.2781
1.58386e+08,-83.5547
1.58453e+08,-81.3342
1.5852e+08,-82.606
1.58586e+08,-83.1243
1.58653e+08,-82.719
1.5872e+08,-82.774
1.58786e+08,-82.4569
1.58853e+08,-82.0259
1.5892e+08,-82.5369
1.58986e+08,-81.473
1.59053e+08,-82.8998
1.5912e+08,-82.8109
1.59186e+08,-81.7998
1.59253e+08,-82.4381
1.5932e+08,-80.4833
1.59386e+08,-83.0769
1.59453e+08,-82.8364
1.5952e+08,-83.568
1.59587e+08,-82.528
1.59653e+08,-82.7114
1.5972e+08,-83.4495
1.59787e+08,-83.136
1.59853e+08,-82.7535
1.5992e+08,-82.2548
1.59987e+08,-82.9292
1.60053e+08,-82.2351
1.6012e+08,-82.8274
1.60187e+08,-82.6719
1.60253e+08,-81.9789
1.6032e+08,-82.8379
1.60387e+08,-82.3078
1.60453e+08,-82.4828
1.6052e+08,-82.6694
1.60587e+08,-83.8665
1.60654e+08,-83.1962
1.6072e+08,-82.3393
1.60787e+08,-81.5559
1.60854e+08,-82.6511
1.6092e+08,-83.1316
1.60987e+08,-83.1519
1.61054e+08,-82.1939
1.6112e+08,-82.5786
1.61187e+08,-82.629
1.61254e+08,-82.0115
1.6132e+08,-83.0541
1.61387e+08,-82.8782
1.61454e+08,-81.7721
1.61521e+08,-83.4489
1.61587e+08,-82.1156
1.61654e+08,-82.7958
1.61721e+08,-83.1007
1.61787e+08,-82.9523
1.61854e+08,-82.5459
1.61921e+08,-83.3132
1.61987e+08,-82.3184
1.62054e+08,-82.4017
1.62121e+08,-82.4012
1.62187e+08,-82.1259
1.62254e+08,-83.7864
1.62321e+08,-82.8793
1.62387e+08,-83.0833
1.62454e+08,-82.3681
1.62521e+08,-82.1679
1.62588e+08,-73.2144
1.62654e+08,-82.7803
1.62721e+08,-81.2954
1.62788e+08,-82.6405
1.62854e+08,-82.1766
1.62921e+08,-82.5495
1.62988e+08,-82.9637
1.63054e+08,-82.0309
1.63121e+08,-82.0929
1.63188e+08,-82.9662
1.63254e+08,-83.1307
1.63321e+08,-82.6839
1.63388e+08,-81.2132
1.63454e+08,-82.5767
1.63521e+08,-81.7993
1.63588e+08,-82.3634
1.63655e+08,-83.1569
1.63721e+08,-81.5616
1.63788e+08,-83.202
1.63855e+08,-83.7609
1.63921e+08,-81.4119
1.63988e+08,-83.5301
1.64055e+08,-83.3568
1.64121e+08,-83.0951
1.64188e+08,-83.5198
1.64255e+08,-83.3041
1.64321e+08,-82.2255
1.64388e+08,-82.5892
1.64455e+08,-82.628
1.64522e+08,-83.4522
1.64588e+08,-82.5799
1.64655e+08,-81.8481
1.64722e+08,-82.918
1.64788e+08,-82.8972
1.64855e+08,-82.5194
1.64922e+08,-82.6679
1.64988e+08,-81.5905
1.65055e+08,-82.2538
1.65122e+08,-81.7303
1.65188e+08,-83.0168
1.65255e+08,-83.1742
1.65322e+08,-82.9747
1.65388e+08,-82.8643
1.65455e+08,-81.9689
1.65522e+08,-82.9242
1.65589e+08,-82.985
1.65655e+08,-81.993
1.65722e+08,-82.5675
1.65789e+08,-82.614
1.65855e+08,-82.1839
1.65922e+08,-82.2813
1.65989e+08,-82.6125
1.66055e+08,-82.7268
1.66122e+08,-81.5924
1.66189e+08,-82.997
1.66255e+08,-83.513
1.66322e+08,-82.91
1.66389e+08,-82.1949
1.66455e+08,-82.1161
1.66522e+08,-82.0085
1.66589e+08,-82.8593
1.66656e+08,-82.7783
1.66722e+08,-81.1781
1.66789e+08,-82.6736
1.66856e+08,-81.5799
1.66922e+08,-82.8004
1.66989e+08,-83.1151
1.67056e+08,-81.3917
1.67122e+08,-83.0353
1.67189e+08,-82.4708
1.67256e+08,-83.0177
1.67322e+08,-83.3279
1.67389e+08,-83.3574
1.67456e+08,-82.9301
1.67523e+08,-82.273
1.67589e+08,-81.6164
1.67656e+08,-81.8869
1.67723e+08,-81.8287
1.67789e+08,-82.7778
1.67856e+08,-83.0629
1.67923e+08,-82.4344
1.67989e+08,-83.6451
1.68056e+08,-83.4127
1.68123e+08,-82.8519
1.68189e+08,-82.5881
1.68256e+08,-83.1558
1.68323e+08,-82.5558
1.68389e+08,-82.3847
1.68456e+08,-83.9074
1.68523e+08,-82.2202
1.6859e+08,-82.0889
1.68656e+08,-81.244
1.68723e+08,-81.937
1.6879e+08,-82.5015
1.68856e+08,-83.0181
1.68923e+08,-81.7909
1.6899e+08,-82.809
1.69056e+08,-82.5112
1.69123e+08,-81.9743
1.6919e+08,-82.8075
1.69256e+08,-82.3399
1.69323e+08,-82.447
1.6939e+08,-83.7417
1.69456e+08,-81.432
1.69523e+08,-81.8801
1.6959e+08,-83.3968
1.69657e+08,-82.975
1.69723e+08,-83.0654
1.6979e+08,-82.9003
1.69857e+08,-82.8307
1.69923e+08,-83.2913
1.6999e+08,-82.6773
1.70057e+08,-82.7527
1.70123e+08,-82.6446
1.7019e+08,-82.9013
1.70257e+08,-80.7316
1.70323e+08,-82.9494
1.7039e+08,-82.3505
1.70457e+08,-83.4902
1.70524e+08,-83.0927
1.7059e+08,-82.5976
1.70657e+08,-81.3135
1.70724e+08,-81.1915
1.7079e+08,-82.905
1.70857e+08,-82.9004
1.70924e+08,-83.1567
1.7099e+08,-82.6025
1.71057e+08,-82.4611
1.71124e+08,-83.3982
1.7119e+08,-81.9441
1.71257e+08,-83.129
1.71324e+08,-82.6912
1.7139e+08,-82.7587
1.71457e+08,-82.9614
1.71524e+08,-82.2354
1.71591e+08,-81.9887
1.71657e+08,-82.7648
1.71724e+08,-81.0081
1.71791e+08,-80.663
1.71857e+08,-82.9955
1.71924e+08,-82.9579
1.71991e+08,-83.246
1.72057e+08,-82.7056
1.72124e+08,-82.4376
1.72191e+08,-82.36
1.72257e+08,-81.6094
1.72324e+08,-83.218
1.72391e+08,-82.3738
1.72457e+08,-82.9006
1.72524e+08,-83.2718
1.72591e+08,-82.7738
1.72658e+08,-81.8965
1.72724e+08,-82.4447
1.72791e+08,-82.7965
1.72858e+08,-83.5291
1.72924e+08,-82.8645
1.72991e+08,-81.7388
1.73058e+08,-81.3877
1.73124e+08,-81.7307
1.73191e+08,-81.9217
1.73258e+08,-82.6647
1.73324e+08,-82.8941
1.73391e+08,-82.4514
1.73458e+08,-83.7969
1.73525e+08,-82.983
1.73591e+08,-82.6941
1.73658e+08,-81.5533
1.73725e+08,-82.5544
1.73791e+08,-83.6773
1.73858e+08,-79.7712
1.73925e+08,-80.6945
1.73991e+08,-82.521
1.74058e+08,-83.1038
1.74125e+08,-82.5004
1.74191e+08,-82.7578
1.74258e+08,-82.5937
1.74325e+08,-83.7677
1.74391e+08,-80.8706
1.74458e+08,-82.2626
1.74525e+08,-84.1029
1.74592e+08,-82.9874
1.74658e+08,-82.8433
1.74725e+08,-83.1534
1.74792e+08,-82.1995
1.74858e+08,-82.854
1.74925e+08,-83.1477
1.74992e+08,-82.8775
1.75058e+08,-81.4729
1.75125e+08,-82.6427
1.75192e+08,-82.7462
1.75258e+08,-83.2512
1.75325e+08,-83.4274
1.75392e+08,-83.1315
1.75458e+08,-81.5432
1.75525e+08,-82.9721
1.75592e+08,-82.7916
1.75659e+08,-82.7709
1.75725e+08,-83.4856
1.75792e+08,-83.5378
1.75859e+08,-82.8506
1.75925e+08,-82.0115
1.75992e+08,-83.2499
1.76059e+08,-82.9805
1.76125e+08,-83.1894
1.76192e+08,-83.579
1.76259e+08,-82.2567
1.76325e+08,-83.171
1.76392e+08,-82.8018
1.76459e+08,-82.526
1.76526e+08,-81.9186
1.76592e+08,-80.9879
1.76659e+08,-82.3149
1.76726e+08,-82.1736
1.76792e+08,-83.0539
1.76859e+08,-83.4683
1.76926e+08,-81.3587
1.76992e+08,-81.6659
1.77059e+08,-81.6441
1.77126e+08,-81.8411
1.77192e+08,-83.0426
1.77259e+08,-82.2988
1.77326e+08,-82.1503
1.77392e+08,-83.8128
1.77459e+08,-82.97
1.77526e+08,-82.9819
1.77593e+08,-83.3194
1.77659e+08,-83.1779
1.77726e+08,-82.6033
1.77793e+08,-83.1472
1.77859e+08,-82.3906
1.77926e+08,-83.4471
1.77993e+08,-82.9
1.78059e+08,-83.2643
1.78126e+08,-82.6281
1.78193e+08,-82.5011
1.78259e+08,-82.5597
1.78326e+08,-82.8647
1.78393e+08,-83.2575
1.78459e+08,-83.1296
1.78526e+08,-81.2987
1.78593e+08,-82.9904
1.7866e+08,-82.5567
1.78726e+08,-83.3497
1.78793e+08,-83.246
1.7886e+08,-82.8321
1.78926e+08,-82.662
1.78993e+08,-82.6057
1.7906e+08,-83.244
1.79126e+08,-82.5769
1.79193e+08,-81.3485
1.7926e+08,-81.0672
1.79326e+08,-83.0936
1.79393e+08,-83.1352
1.7946e+08,-82.5428
1.79527e+08,-81.8085
1.79593e+08,-83.0958
1.7966e+08,-83.201
1.79727e+08,-82.2956
1.79793e+08,-82.8864
1.7986e+08,-81.9782
1.79927e+08,-82.9349
1.79993e+08,-82.3939
1.8006e+08,-82.7298
1.80127e+08,-83.0205
1.80193e+08,-83.1588
1.8026e+08,-81.8503
1.80327e+08,-82.9691
1.80393e+08,-83.3156
1.8046e+08,-82.371
1.80527e+08,-82.666
1.80594e+08,-83.0967
1.8066e+08,-82.6011
1.80727e+08,-82.7977
1.80794e+08,-82.8135
1.8086e+08,-82.9942
1.80927e+08,-80.8637
1.80994e+08,-83.2594
1.8106e+08,-83.5159
1.81127e+08,-82.9135
1.81194e+08,-83.0501
1.8126e+08,-82.0831
1.81327e+08,-82.2186
1.81394e+08,-84.1983
1.8146e+08,-83.145
1.81527e+08,-82.7957
1.81594e+08,-82.3277
1.81661e+08,-83.1903
1.81727e+08,-81.8102
1.81794e+08,-83.5725
1.81861e+08,-83.1167
1.81927e+08,-82.924
1.81994e+08,-83.2519
1.82061e+08,-83.3593
1.82127e+08,-82.0429
1.82194e+08,-83.8776
1.82261e+08,-83.9466
1.82327e+08,-82.7816
1.82394e+08,-82.7527
1.82461e+08,-83.3955
1.82528e+08,-82.0436
1.82594e+08,-83.0062
1.82661e+08,-81.8871
1.82728e+08,-83.1482
1.82794e+08,-81.5655
1.82861e+08,-82.6364
1.82928e+08,-82.7001
1.82994e+08,-82.5915
1.83061e+08,-83.2912
1.83128e+08,-82.3704
1.83194e+08,-82.8322
1.83261e+08,-83.4157
1.83328e+08,-81.4003
1.83394e+08,-83.0252
1.83461e+08,-82.0928
1.83528e+08,-82.8872
1.83595e+08,-82.7517
1.83661e+08,-83.63
1.83728e+08,-82.6099
1.83795e+08,-83.0013
1.83861e+08,-83.8374
1.83928e+08,-83.1732
1.83995e+08,-82.8016
1.84061e+08,-82.9535
1.84128e+08,-82.9696
1.84195e+08,-83.4
1.84261e+08,-82.7103
1.84328e+08,-82.5536
1.84395e+08,-82.6369
1.84461e+08,-82.0665
1.84528e+08,-83.4589
1.84595e+08,-82.2898
1.84662e+08,-82.7844
1.84728e+08,-82.4953
1.84795e+08,-82.7225
1.84862e+08,-82.4314
1.84928e+08,-83.1487
1.84995e+08,-83.1567
1.85062e+08,-83.0546
1.85128e+08,-83.5207
1.85195e+08,-82.9616
1.85262e+08,-81.9376
1.85328e+08,-83.1755
1.85395e+08,-83.1835
1.85462e+08,-83.2948
1.85529e+08,-83.1782
1.85595e+08,-82.6479
1.85662e+08,-83.1687
1.85729e+08,-81.8935
1.85795e+08,-82.8126
1.85862e+08,-83.4093
1.85929e+08,-82.783
1.85995e+08,-82.8686
1.86062e+08,-83.421
1.86129e+08,-82.8101
1.86195e+08,-82.9749
1.86262e+08,-83.4723
1.86329e+08,-83.4146
1.86395e+08,-82.6018
1.86462e+08,-82.6333
1.86529e+08,-83.3519
1.86596e+08,-83.1064
1.86662e+08,-82.3555
1.86729e+08,-82.8261
1.86796e+08,-82.4679
1.86862e+08,-83.4944
1.86929e+08,-83.1848
1.86996e+08,-81.3139
1.87062e+08,-82.1984
1.87129e+08,-82.7495
1.87196e+08,-83.005
1.87262e+08,-82.7648
1.87329e+08,-82.9831
1.87396e+08,-82.772
1.87462e+08,-82.5221
1.87529e+08,-82.9399
1.87596e+08,-82.8813
1.87663e+08,-82.8314
1.87729e+08,-82.5241
1.87796e+08,-82.9838
1.87863e+08,-82.531
1.87929e+08,-82.169
1.87996e+08,-83.0579
1.88063e+08,-81.7771
1.88129e+08,-81.968
1.88196e+08,-82.7253
1.88263e+08,-82.4372
1.88329e+08,-82.9589
1.88396e+08,-82.8588
1.88463e+08,-82.6706
1.8853e+08,-82.9324
1.88596e+08,-82.6858
1.88663e+08,-83.6103
1.8873e+08,-83.6143
1.88796e+08,-82.7901
1.88863e+08,-82.5235
1.8893e+08,-83.0213
1.88996e+08,-83.1778
1.89063e+08,-83.826
1.8913e+08,-81.6641
1.89196e+08,-82.5728
1.89263e+08,-82.2431
1.8933e+08,-83.436
1.89396e+08,-82.2191
1.89463e+08,-82.2802
1.8953e+08,-83.501
1.89597e+08,-82.1147
1.89663e+08,-83.4291
1.8973e+08,-83.3017
1.89797e+08,-83.8482
1.89863e+08,-84.0112
1.8993e+08,-81.7521
1.89997e+08,-83.1446
1.90063e+08,-83.1784
1.9013e+08,-83.29
1.90197e+08,-82.9657
1.90263e+08,-83.5893
1.9033e+08,-82.8649
1.90397e+08,-82.648
1.90463e+08,-82.6314
1.9053e+08,-83.0009
1.90597e+08,-82.2408
1.90664e+08,-82.0387
1.9073e+08,-83.818
1.90797e+08,-83.5853
1.90864e+08,-82.3667
1.9093e+08,-81.312
1.90997e+08,-82.9138
1.91064e+08,-83.1153
1.9113e+08,-82.318
1.91197e+08,-82.7516
1.91264e+08,-83.6178
1.9133e+08,-83.1517
1.91397e+08,-83.4825
1.91464e+08,-82.9353
1.91531e+08,-81.4329
1.91597e+08,-83.4322
1.91664e+08,-82.1829
1.91731e+08,-83.9877
1.91797e+08,-82.1972
1.91864e+08,-83.2207
1.91931e+08,-82.857
1.91997e+08,-82.5717
1.92064e+08,-83.3715
1.92131e+08,-83.15
1.92197e+08,-82.8799
1.92264e+08,-82.9001
1.92331e+08,-82.5732
1.92397e+08,-82.3669
1.92464e+08,-82.8903
1.92531e+08,-82.8815
1.92598e+08,-82.9143
1.92664e+08,-82.1334
1.92731e+08,-83.8772
1.92798e+08,-83.8488
1.92864e+08,-82.4617
1.92931e+08,-83.2689
1.92998e+08,-82.3624
1.93064e+08,-83.229
1.93131e+08,-83.2328
1.93198e+08,-83.3937
1.93264e+08,-83.1244
1.93331e+08,-83.5125
1.93398e+08,-83.1148
1.93464e+08,-83.2823
1.93531e+08,-82.9616
1.93598e+08,-81.9679
1.93665e+08,-83.5323
1.93731e+08,-82.9475
1.93798e+08,-82.7279
1.93865e+08,-82.8798
1.93931e+08,-81.585
1.93998e+08,-81.3375
1.94065e+08,-82.9492
1.94131e+08,-83.1864
1.94198e+08,-82.046
1.94265e+08,-83.2763
1.94331e+08,-84.2798
1.94398e+08,-82.1318
1.94465e+08,-83.3403
1.94532e+08,-83.0935
1.94598e+08,-83.2607
1.94665e+08,-82.8862
1.94732e+08,-82.836
1.94798e+08,-83.8244
1.94865e+08,-83.4431
1.94932e+08,-83.1847
1.94998e+08,-83.2925
1.95065e+08,-82.8459
1.95132e+08,-82.9705
1.95198e+08,-82.9197
1.95265e+08,-82.6843
1.95332e+08,-83.4974
1.95398e+08,-82.8103
1.95465e+08,-83.5322
1.95532e+08,-83.103
1.95599e+08,-81.9753
1.95665e+08,-83.4371
1.95732e+08,-82.9157
1.95799e+08,-83.361
1.95865e+08,-82.7985
1.95932e+08,-83.7513
1.95999e+08,-83.2285
1.96065e+08,-83.4919
1.96132e+08,-82.9002
1.96199e+08,-82.2954
1.96265e+08,-83.3839
1.96332e+08,-83.6068
1.96399e+08,-83.7754
1.96465e+08,-82.5141
1.96532e+08,-83.2332
1.96599e+08,-82.2691
1.96666e+08,-83.9647
1.96732e+08,-82.3774
1.96799e+08,-81.9888
1.96866e+08,-82.9114
1.96932e+08,-82.4549
1.96999e+08,-81.3219
1.97066e+08,-81.3737
1.97132e+08,-83.2591
1.97199e+08,-83.3989
1.97266e+08,-83.5322
1.97332e+08,-82.1901
1.97399e+08,-82.6236
1.97466e+08,-83.4058
1.97533e+08,-82.4742
1.97599e+08,-83.3959
1.97666e+08,-81.9223
1.97733e+08,-82.5046
1.97799e+08,-82.9926
1.97866e+08,-83.3191
1.97933e+08,-83.7133
1.97999e+08,-82.8487
1.98066e+08,-83.0329
1.98133e+08,-82.8311
1.98199e+08,-83.5341
1.98266e+08,-83.2375
1.98333e+08,-83.2023
1.98399e+08,-82.0902
1.98466e+08,-82.1088
1.98533e+08,-82.4826
1.986e+08,-81.9865
1.98666e+08,-83.4768
1.98733e+08,-82.1989
1.988e+08,-83.5747
1.98866e+08,-81.027
1.98933e+08,-83.8959
1.99e+08,-82.3329
1.99066e+08,-81.7674
1.99133e+08,-83.2266
1.992e+08,-82.355
1.99266e+08,-82.7606
1.99333e+08,-82.2175
1.994e+08,-82.9806
1.99466e+08,-82.9758
1.99533e+08,-82.1621
1.996e+08,-82.7787
1.99667e+08,-83.5231
1.99733e+08,-83.0204
1.998e+08,-82.5532
1.99867e+08,-82.7109
1.99933e+08,-83.8603
2e+08,-83.1122
