FileType,0
Number of Points,3000
Sweep Time,3e+08
Start Frequency,0
Stop Frequency,2e+08
Average Count,1
Average Type,0
RBW,10000
RBW Filter,0
RBW Filter BW,0
VBW,10000
Sweep Type,0
X Axis Scale,1
PreAmp State,0
Trigger Source,0
Trigger Level,-25
Trigger Edge,0
Trigger Delay Switch,0
Trigger Delay,1
Attenuation,0
Ref Level Offset,0
External Gain,0
Trace Type,0
Detector,0
Trace Math,5
Trace Math Oper1,4
Trace Math Oper2,5
Trace Math Offset,0
Trace Name,0
Full Span,2e+08
Y Axis Unit,0
DATA,
0,-32.0455
66688.9,-91.5248
133378,-88.9225
200067,-82.0075
266756,-86.5258
333444,-87.0191
400133,-86.3657
466822,-86.8276
533511,-86.0685
600200,-86.0118
666889,-85.7066
733578,-86.6871
800267,-86.1153
866956,-87.054
933645,-85.8665
1.00033e+06,-85.4458
1.06702e+06,-86.1172
1.13371e+06,-86.4917
1.2004e+06,-85.8691
1.26709e+06,-85.213
1.33378e+06,-85.9378
1.40047e+06,-86.8283
1.46716e+06,-87.1734
1.53384e+06,-86.2359
1.60053e+06,-85.398
1.66722e+06,-85.3879
1.73391e+06,-85.6008
1.8006e+06,-86.1459
1.86729e+06,-86.2093
1.93398e+06,-85.9869
2.00067e+06,-85.0082
2.06736e+06,-85.5524
2.13404e+06,-85.2465
2.20073e+06,-84.9996
2.26742e+06,-85.9589
2.33411e+06,-85.4486
2.4008e+06,-86.5101
2.46749e+06,-85.1544
2.53418e+06,-86.0493
2.60087e+06,-86.0583
2.66756e+06,-85.9488
2.73424e+06,-86.0488
2.80093e+06,-85.2784
2.86762e+06,-85.4902
2.93431e+06,-86.1867
3.001e+06,-85.8223
3.06769e+06,-86.8229
3.13438e+06,-85.6892
3.20107e+06,-84.9486
3.26776e+06,-85.6102
3.33444e+06,-83.7593
3.40113e+06,-85.111
3.46782e+06,-85.9559
3.53451e+06,-85.6357
3.6012e+06,-86.288
3.66789e+06,-84.7167
3.73458e+06,-85.4538
3.80127e+06,-85.0038
3.86796e+06,-84.5068
3.93464e+06,-85.1426
4.00133e+06,-84.2645
4.06802e+06,-84.8423
4.13471e+06,-85.8642
4.2014e+06,-84.4144
4.26809e+06,-85.3929
4.33478e+06,-85.0107
4.40147e+06,-84.9135
4.46816e+06,-84.5668
4.53484e+06,-85.3837
4.60153e+06,-85.3244
4.66822e+06,-85.854
4.73491e+06,-84.9047
4.8016e+06,-85.7557
4.86829e+06,-85.6938
4.93498e+06,-85.3913
5.00167e+06,-84.5578
5.06836e+06,-85.0905
5.13505e+06,-85.5277
5.20173e+06,-84.9036
5.26842e+06,-84.1209
5.33511e+06,-86.3879
5.4018e+06,-85.5789
5.46849e+06,-84.5954
5.53518e+06,-85.6308
5.60187e+06,-85.4407
5.66856e+06,-84.6104
5.73525e+06,-85.6654
5.80193e+06,-83.8452
5.86862e+06,-84.6957
5.93531e+06,-83.7039
6.002e+06,-83.9305
6.06869e+06,-85.4653
6.13538e+06,-85.1538
6.20207e+06,-84.7342
6.26876e+06,-85.3204
6.33545e+06,-85.5334
6.40213e+06,-85.6989
6.46882e+06,-85.2194
6.53551e+06,-85.3874
6.6022e+06,-85.3533
6.66889e+06,-85.8223
6.73558e+06,-84.4463
6.80227e+06,-85.3698
6.86896e+06,-84.9964
6.93565e+06,-84.6696
7.00233e+06,-85.9383
7.06902e+06,-84.8112
7.13571e+06,-85.2344
7.2024e+06,-85.5486
7.26909e+06,-84.2715
7.33578e+06,-84.3765
7.40247e+06,-84.8822
7.46916e+06,-84.6918
7.53585e+06,-85.7137
7.60253e+06,-83.5887
7.66922e+06,-85.5734
7.73591e+06,-85.5473
7.8026e+06,-85.8374
7.86929e+06,-84.4971
7.93598e+06,-84.6985
8.00267e+06,-84.2623
8.06936e+06,-84.8806
8.13605e+06,-84.2321
8.20273e+06,-85.443
8.26942e+06,-84.6664
8.33611e+06,-85.5286
8.4028e+06,-84.3891
8.46949e+06,-85.0088
8.53618e+06,-85.58
8.60287e+06,-83.7959
8.66956e+06,-85.2809
8.73625e+06,-84.9919
8.80293e+06,-84.6028
8.86962e+06,-85.0649
8.93631e+06,-85.1967
9.003e+06,-84.0753
9.06969e+06,-85.4837
9.13638e+06,-83.6822
9.20307e+06,-85.2628
9.26976e+06,-84.2517
9.33645e+06,-82.1377
9.40313e+06,-85.3381
9.46982e+06,-84.7499
9.53651e+06,-83.9004
9.6032e+06,-85.055
9.66989e+06,-85.1452
9.73658e+06,-85.2448
9.80327e+06,-84.8524
9.86996e+06,-84.1318
9.93665e+06,-84.4005
1.00033e+07,-84.5766
1.007e+07,-84.6453
1.01367e+07,-85.5398
1.02034e+07,-83.8822
1.02701e+07,-84.9448
1.03368e+07,-84.1052
1.04035e+07,-84.823
1.04702e+07,-85.081
1.05368e+07,-83.9215
1.06035e+07,-85.1953
1.06702e+07,-84.884
1.07369e+07,-84.677
1.08036e+07,-84.4825
1.08703e+07,-83.8534
1.0937e+07,-84.5194
1.10037e+07,-84.6038
1.10704e+07,-83.0026
1.1137e+07,-84.3949
1.12037e+07,-83.9357
1.12704e+07,-85.0395
1.13371e+07,-84.0649
1.14038e+07,-84.339
1.14705e+07,-83.0958
1.15372e+07,-82.6987
1.16039e+07,-84.3142
1.16706e+07,-84.7534
1.17372e+07,-83.8367
1.18039e+07,-84.5408
1.18706e+07,-83.5204
1.19373e+07,-83.3294
1.2004e+07,-83.9349
1.20707e+07,-84.7474
1.21374e+07,-84.3595
1.22041e+07,-84.8533
1.22708e+07,-83.6192
1.23374e+07,-83.1882
1.24041e+07,-84.4736
1.24708e+07,-84.2329
1.25375e+07,-82.7112
1.26042e+07,-83.6165
1.26709e+07,-84.3413
1.27376e+07,-84.2718
1.28043e+07,-84.7173
1.2871e+07,-83.8421
1.29376e+07,-83.3504
1.30043e+07,-83.707
1.3071e+07,-83.9987
1.31377e+07,-84.1911
1.32044e+07,-83.2297
1.32711e+07,-83.7565
1.33378e+07,-83.3925
1.34045e+07,-83.8727
1.34712e+07,-82.8812
1.35378e+07,-82.2523
1.36045e+07,-84.0611
1.36712e+07,-83.9982
1.37379e+07,-84.0377
1.38046e+07,-83.539
1.38713e+07,-84.1896
1.3938e+07,-83.2684
1.40047e+07,-82.2994
1.40714e+07,-84.3482
1.4138e+07,-83.9061
1.42047e+07,-84.7154
1.42714e+07,-83.9358
1.43381e+07,-83.3554
1.44048e+07,-83.7472
1.44715e+07,-84.4146
1.45382e+07,-83.3538
1.46049e+07,-84.2977
1.46716e+07,-83.8623
1.47382e+07,-84.0474
1.48049e+07,-83.7785
1.48716e+07,-83.4924
1.49383e+07,-84.113
1.5005e+07,-84.1035
1.50717e+07,-83.4032
1.51384e+07,-84.321
1.52051e+07,-82.3005
1.52718e+07,-83.9674
1.53384e+07,-83.1635
1.54051e+07,-83.7519
1.54718e+07,-83.4791
1.55385e+07,-84.0766
1.56052e+07,-83.1331
1.56719e+07,-82.7854
1.57386e+07,-83.9724
1.58053e+07,-83.7832
1.5872e+07,-83.5094
1.59386e+07,-83.6018
1.60053e+07,-82.599
1.6072e+07,-83.4282
1.61387e+07,-83.8415
1.62054e+07,-83.1443
1.62721e+07,-83.1196
1.63388e+07,-84.192
1.64055e+07,-82.3236
1.64722e+07,-83.8125
1.65388e+07,-83.7555
1.66055e+07,-83.7637
1.66722e+07,-83.9249
1.67389e+07,-83.4269
1.68056e+07,-82.8577
1.68723e+07,-84.3716
1.6939e+07,-84.3432
1.70057e+07,-83.0375
1.70724e+07,-83.1493
1.7139e+07,-83.8289
1.72057e+07,-82.0035
1.72724e+07,-83.4267
1.73391e+07,-82.991
1.74058e+07,-83.0342
1.74725e+07,-82.9622
1.75392e+07,-83.0092
1.76059e+07,-83.0765
1.76726e+07,-83.5791
1.77392e+07,-82.8344
1.78059e+07,-83.6035
1.78726e+07,-83.4217
1.79393e+07,-84.0211
1.8006e+07,-83.2636
1.80727e+07,-83.5843
1.81394e+07,-83.3614
1.82061e+07,-84.0189
1.82728e+07,-81.3799
1.83394e+07,-82.4371
1.84061e+07,-83.8798
1.84728e+07,-82.0428
1.85395e+07,-82.2439
1.86062e+07,-82.346
1.86729e+07,-81.6275
1.87396e+07,-82.9124
1.88063e+07,-84.0542
1.8873e+07,-82.0538
1.89396e+07,-83.1623
1.90063e+07,-82.9299
1.9073e+07,-83.0765
1.91397e+07,-82.7957
1.92064e+07,-83.1844
1.92731e+07,-82.8648
1.93398e+07,-82.8721
1.94065e+07,-83.8146
1.94732e+07,-83.2189
1.95398e+07,-83.534
1.96065e+07,-81.5995
1.96732e+07,-83.5966
1.97399e+07,-82.4033
1.98066e+07,-83.6426
1.98733e+07,-82.571
1.994e+07,-80.9919
2.00067e+07,-82.8509
2.00734e+07,-82.0046
2.014e+07,-81.4738
2.02067e+07,-82.4625
2.02734e+07,-82.6817
2.03401e+07,-82.6657
2.04068e+07,-82.9653
2.04735e+07,-83.6536
2.05402e+07,-82.1868
2.06069e+07,-83.4823
2.06736e+07,-82.6703
2.07402e+07,-82.4053
2.08069e+07,-81.7493
2.08736e+07,-82.3262
2.09403e+07,-82.6754
2.1007e+07,-81.2448
2.10737e+07,-81.9492
2.11404e+07,-80.6703
2.12071e+07,-82.517
2.12738e+07,-83.0528
2.13404e+07,-82.5007
2.14071e+07,-83.2421
2.14738e+07,-81.5115
2.15405e+07,-82.9744
2.16072e+07,-81.43
2.16739e+07,-81.8942
2.17406e+07,-82.381
2.18073e+07,-81.3949
2.1874e+07,-80.8732
2.19406e+07,-82.1664
2.20073e+07,-80.8501
2.2074e+07,-82.4375
2.21407e+07,-82.0672
2.22074e+07,-82.1205
2.22741e+07,-81.3377
2.23408e+07,-82.1553
2.24075e+07,-80.5014
2.24742e+07,-80.7744
2.25408e+07,-81.9283
2.26075e+07,-82.4138
2.26742e+07,-81.6938
2.27409e+07,-82.3753
2.28076e+07,-81.7824
2.28743e+07,-81.8549
2.2941e+07,-81.7292
2.30077e+07,-81.3704
2.30744e+07,-81.853
2.3141e+07,-80.7158
2.32077e+07,-81.5221
2.32744e+07,-82.5885
2.33411e+07,-81.6876
2.34078e+07,-81.2027
2.34745e+07,-82.4131
2.35412e+07,-82.0433
2.36079e+07,-81.6132
2.36746e+07,-82.0671
2.37412e+07,-82.0629
2.38079e+07,-82.2472
2.38746e+07,-82.6478
2.39413e+07,-81.2172
2.4008e+07,-81.5653
2.40747e+07,-81.3471
2.41414e+07,-81.711
2.42081e+07,-81.6212
2.42748e+07,-81.4584
2.43414e+07,-81.7195
2.44081e+07,-82.2159
2.44748e+07,-82.762
2.45415e+07,-79.5029
2.46082e+07,-81.6004
2.46749e+07,-81.3945
2.47416e+07,-80.3694
2.48083e+07,-81.3999
2.4875e+07,-81.2672
2.49416e+07,-81.1883
2.50083e+07,-81.9831
2.5075e+07,-80.5635
2.51417e+07,-81.8406
2.52084e+07,-80.6994
2.52751e+07,-82.2849
2.53418e+07,-82.3397
2.54085e+07,-80.9499
2.54752e+07,-81.4337
2.55418e+07,-81.5407
2.56085e+07,-80.9861
2.56752e+07,-81.604
2.57419e+07,-81.171
2.58086e+07,-80.6234
2.58753e+07,-81.2512
2.5942e+07,-80.3315
2.60087e+07,-81.1135
2.60754e+07,-81.1
2.6142e+07,-81.1446
2.62087e+07,-80.8106
2.62754e+07,-81.5575
2.63421e+07,-78.9872
2.64088e+07,-80.787
2.64755e+07,-81.4914
2.65422e+07,-81.1797
2.66089e+07,-80.3164
2.66756e+07,-80.4165
2.67422e+07,-80.4427
2.68089e+07,-80.3352
2.68756e+07,-78.4961
2.69423e+07,-77.5808
2.7009e+07,-78.9055
2.70757e+07,-79.8144
2.71424e+07,-79.3037
2.72091e+07,-78.4145
2.72758e+07,-79.3868
2.73424e+07,-78.8102
2.74091e+07,-79.1325
2.74758e+07,-77.6469
2.75425e+07,-77.5365
2.76092e+07,-78.1957
2.76759e+07,-77.516
2.77426e+07,-77.236
2.78093e+07,-76.8473
2.7876e+07,-76.9082
2.79426e+07,-76.5316
2.80093e+07,-75.725
2.8076e+07,-77.1261
2.81427e+07,-77.1993
2.82094e+07,-76.5711
2.82761e+07,-75.2376
2.83428e+07,-75.0067
2.84095e+07,-76.3854
2.84762e+07,-76.8708
2.85428e+07,-75.3509
2.86095e+07,-75.4524
2.86762e+07,-76.2341
2.87429e+07,-75.3274
2.88096e+07,-76.0342
2.88763e+07,-76.5171
2.8943e+07,-76.2298
2.90097e+07,-74.7078
2.90764e+07,-75.5021
2.9143e+07,-76.2611
2.92097e+07,-77.5166
2.92764e+07,-76.8732
2.93431e+07,-76.1034
2.94098e+07,-77.3958
2.94765e+07,-74.6172
2.95432e+07,-75.4571
2.96099e+07,-77.5772
2.96766e+07,-75.5971
2.97432e+07,-76.9706
2.98099e+07,-76.3292
2.98766e+07,-76.4564
2.99433e+07,-75.3661
3.001e+07,-76.1756
3.00767e+07,-76.2099
3.01434e+07,-76.9268
3.02101e+07,-74.4449
3.02768e+07,-75.7333
3.03434e+07,-75.9337
3.04101e+07,-75.6022
3.04768e+07,-75.3427
3.05435e+07,-75.3504
3.06102e+07,-75.7826
3.06769e+07,-75.1024
3.07436e+07,-75.9246
3.08103e+07,-74.9277
3.0877e+07,-74.3207
3.09436e+07,-73.9628
3.10103e+07,-74.9004
3.1077e+07,-74.2627
3.11437e+07,-74.4828
3.12104e+07,-72.9867
3.12771e+07,-74.1655
3.13438e+07,-72.9982
3.14105e+07,-71.5602
3.14772e+07,-72.5162
3.15438e+07,-73.4567
3.16105e+07,-71.7958
3.16772e+07,-69.9399
3.17439e+07,-72.462
3.18106e+07,-71.8641
3.18773e+07,-70.516
3.1944e+07,-71.3788
3.20107e+07,-70.9902
3.20774e+07,-69.7992
3.2144e+07,-69.8819
3.22107e+07,-69.3392
3.22774e+07,-68.5001
3.23441e+07,-68.536
3.24108e+07,-67.7265
3.24775e+07,-68.2614
3.25442e+07,-68.1257
3.26109e+07,-66.9931
3.26776e+07,-67.0334
3.27442e+07,-65.063
3.28109e+07,-65.109
3.28776e+07,-65.3367
3.29443e+07,-66.3698
3.3011e+07,-65.4007
3.30777e+07,-64.5974
3.31444e+07,-64.9105
3.32111e+07,-64.9695
3.32778e+07,-65.4366
3.33444e+07,-64.2861
3.34111e+07,-64.3976
3.34778e+07,-65.1927
3.35445e+07,-64.367
3.36112e+07,-65.0023
3.36779e+07,-64.503
3.37446e+07,-64.3161
3.38113e+07,-64.723
3.3878e+07,-65.2994
3.39446e+07,-64.1817
3.40113e+07,-64.5756
3.4078e+07,-65.3038
3.41447e+07,-65.6823
3.42114e+07,-65.0727
3.42781e+07,-65.5787
3.43448e+07,-64.2842
3.44115e+07,-66.2027
3.44782e+07,-65.9667
3.45448e+07,-66.1084
3.46115e+07,-65.8986
3.46782e+07,-65.9427
3.47449e+07,-65.4823
3.48116e+07,-66.4335
3.48783e+07,-63.9166
3.4945e+07,-65.3947
3.50117e+07,-65.8117
3.50784e+07,-64.7804
3.5145e+07,-65.8536
3.52117e+07,-64.4761
3.52784e+07,-65.803
3.53451e+07,-66.6771
3.54118e+07,-65.6303
3.54785e+07,-64.0113
3.55452e+07,-64.0617
3.56119e+07,-63.9814
3.56786e+07,-65.0707
3.57452e+07,-64.207
3.58119e+07,-63.4695
3.58786e+07,-63.869
3.59453e+07,-65.4324
3.6012e+07,-63.1702
3.60787e+07,-63.5875
3.61454e+07,-63.8152
3.62121e+07,-63.815
3.62788e+07,-63.6017
3.63454e+07,-62.9545
3.64121e+07,-64.2802
3.64788e+07,-65.0843
3.65455e+07,-64.3459
3.66122e+07,-63.9865
3.66789e+07,-64.4168
3.67456e+07,-63.664
3.68123e+07,-64.1993
3.6879e+07,-64.1875
3.69456e+07,-63.5366
3.70123e+07,-64.1658
3.7079e+07,-64.589
3.71457e+07,-64.1572
3.72124e+07,-64.0415
3.72791e+07,-64.7176
3.73458e+07,-62.9081
3.74125e+07,-63.0736
3.74792e+07,-63.3645
3.75458e+07,-63.4515
3.76125e+07,-64.6475
3.76792e+07,-63.3356
3.77459e+07,-63.6936
3.78126e+07,-64.3297
3.78793e+07,-63.4441
3.7946e+07,-64.0919
3.80127e+07,-63.511
3.80794e+07,-63.3213
3.8146e+07,-60.4077
3.82127e+07,-63.6074
3.82794e+07,-63.7265
3.83461e+07,-63.7113
3.84128e+07,-63.1134
3.84795e+07,-63.3712
3.85462e+07,-63.2913
3.86129e+07,-61.8214
3.86796e+07,-61.7045
3.87462e+07,-63.6978
3.88129e+07,-62.9027
3.88796e+07,-61.9385
3.89463e+07,-62.8267
3.9013e+07,-62.4428
3.90797e+07,-62.3481
3.91464e+07,-62.472
3.92131e+07,-61.82
3.92798e+07,-61.9621
3.93464e+07,-62.3479
3.94131e+07,-63.2287
3.94798e+07,-63.3784
3.95465e+07,-61.6413
3.96132e+07,-62.3428
3.96799e+07,-63.0662
3.97466e+07,-62.3144
3.98133e+07,-62.473
3.988e+07,-60.9876
3.99466e+07,-63.3965
4.00133e+07,-63.2523
4.008e+07,-63.5045
4.01467e+07,-63.5138
4.02134e+07,-63.3749
4.02801e+07,-64.15
4.03468e+07,-63.1646
4.04135e+07,-63.2704
4.04802e+07,-64.1444
4.05468e+07,-63.8493
4.06135e+07,-64.2562
4.06802e+07,-64.3264
4.07469e+07,-64.2361
4.08136e+07,-63.89
4.08803e+07,-64.4319
4.0947e+07,-64.0582
4.10137e+07,-63.669
4.10804e+07,-64.0042
4.1147e+07,-63.8725
4.12137e+07,-63.9628
4.12804e+07,-64.7899
4.13471e+07,-64.9499
4.14138e+07,-64.7297
4.14805e+07,-62.9693
4.15472e+07,-62.8955
4.16139e+07,-64.1207
4.16806e+07,-64.0729
4.17472e+07,-63.5568
4.18139e+07,-64.7768
4.18806e+07,-63.2894
4.19473e+07,-64.2328
4.2014e+07,-63.9918
4.20807e+07,-63.3137
4.21474e+07,-63.5739
4.22141e+07,-63.8665
4.22808e+07,-64.1474
4.23474e+07,-64.2582
4.24141e+07,-63.6247
4.24808e+07,-64.3389
4.25475e+07,-62.9943
4.26142e+07,-63.2783
4.26809e+07,-63.674
4.27476e+07,-63.9343
4.28143e+07,-63.1236
4.2881e+07,-63.1449
4.29476e+07,-64.0164
4.30143e+07,-62.792
4.3081e+07,-61.9411
4.31477e+07,-63.7467
4.32144e+07,-62.7555
4.32811e+07,-64.2349
4.33478e+07,-63.9541
4.34145e+07,-63.1682
4.34812e+07,-62.91
4.35478e+07,-63.2162
4.36145e+07,-62.8167
4.36812e+07,-63.1548
4.37479e+07,-62.61
4.38146e+07,-62.3999
4.38813e+07,-62.4597
4.3948e+07,-62.5161
4.40147e+07,-62.6317
4.40814e+07,-62.0844
4.4148e+07,-63.216
4.42147e+07,-63.3888
4.42814e+07,-62.7012
4.43481e+07,-61.6652
4.44148e+07,-62.2188
4.44815e+07,-62.57
4.45482e+07,-62.7633
4.46149e+07,-62.8085
4.46816e+07,-62.2305
4.47482e+07,-62.7225
4.48149e+07,-61.891
4.48816e+07,-61.6679
4.49483e+07,-62.4485
4.5015e+07,-62.1911
4.50817e+07,-61.1427
4.51484e+07,-60.659
4.52151e+07,-61.6595
4.52818e+07,-62.4193
4.53484e+07,-60.4238
4.54151e+07,-59.9705
4.54818e+07,-59.3538
4.55485e+07,-61.3053
4.56152e+07,-60.9472
4.56819e+07,-61.2173
4.57486e+07,-60.2196
4.58153e+07,-60.7637
4.5882e+07,-60.2618
4.59486e+07,-59.9298
4.60153e+07,-59.3948
4.6082e+07,-59.8276
4.61487e+07,-61.54
4.62154e+07,-60.0267
4.62821e+07,-58.8559
4.63488e+07,-59.1237
4.64155e+07,-61.4005
4.64822e+07,-59.3328
4.65488e+07,-58.7147
4.66155e+07,-59.719
4.66822e+07,-61.6485
4.67489e+07,-60.7407
4.68156e+07,-59.6709
4.68823e+07,-61.5182
4.6949e+07,-61.8064
4.70157e+07,-60.4943
4.70824e+07,-61.0391
4.7149e+07,-62.462
4.72157e+07,-60.4961
4.72824e+07,-62.4085
4.73491e+07,-62.5718
4.74158e+07,-62.6919
4.74825e+07,-62.0063
4.75492e+07,-62.0964
4.76159e+07,-61.8391
4.76826e+07,-61.345
4.77492e+07,-62.1621
4.78159e+07,-62.1247
4.78826e+07,-61.3965
4.79493e+07,-62.3839
4.8016e+07,-62.3634
4.80827e+07,-62.2146
4.81494e+07,-61.9344
4.82161e+07,-62.6271
4.82828e+07,-62.2945
4.83494e+07,-62.6212
4.84161e+07,-62.2419
4.84828e+07,-62.239
4.85495e+07,-62.4408
4.86162e+07,-62.3437
4.86829e+07,-63.3037
4.87496e+07,-62.0678
4.88163e+07,-61.8364
4.8883e+07,-61.0414
4.89496e+07,-63.1511
4.90163e+07,-61.7314
4.9083e+07,-61.4617
4.91497e+07,-61.9279
4.92164e+07,-62.8763
4.92831e+07,-63.4201
4.93498e+07,-62.0876
4.94165e+07,-62.2986
4.94832e+07,-62.5705
4.95498e+07,-63.1819
4.96165e+07,-62.7045
4.96832e+07,-62.389
4.97499e+07,-59.8992
4.98166e+07,-63.0917
4.98833e+07,-62.1197
4.995e+07,-61.9597
5.00167e+07,-62.2374
5.00834e+07,-62.7058
5.01501e+07,-63.0756
5.02167e+07,-61.8581
5.02834e+07,-62.365
5.03501e+07,-61.8671
5.04168e+07,-62.0431
5.04835e+07,-61.9992
5.05502e+07,-62.3414
5.06169e+07,-61.6397
5.06836e+07,-60.5087
5.07503e+07,-61.7676
5.08169e+07,-61.3942
5.08836e+07,-62.0884
5.09503e+07,-61.4818
5.1017e+07,-62.1512
5.10837e+07,-61.3961
5.11504e+07,-61.3648
5.12171e+07,-60.5195
5.12838e+07,-60.6807
5.13505e+07,-60.6735
5.14171e+07,-60.7842
5.14838e+07,-61.0951
5.15505e+07,-60.4336
5.16172e+07,-60.9072
5.16839e+07,-60.6403
5.17506e+07,-60.5334
5.18173e+07,-61.1621
5.1884e+07,-60.8136
5.19507e+07,-59.7833
5.20173e+07,-60.6225
5.2084e+07,-60.8203
5.21507e+07,-61.3419
5.22174e+07,-59.9811
5.22841e+07,-61.8123
5.23508e+07,-59.6199
5.24175e+07,-61.3315
5.24842e+07,-61.6275
5.25509e+07,-61.6495
5.26175e+07,-61.7148
5.26842e+07,-60.9706
5.27509e+07,-61.639
5.28176e+07,-60.6646
5.28843e+07,-61.0321
5.2951e+07,-61.2029
5.30177e+07,-60.2651
5.30844e+07,-62.1708
5.31511e+07,-61.3133
5.32177e+07,-61.6102
5.32844e+07,-61.7107
5.33511e+07,-61.8211
5.34178e+07,-61.7032
5.34845e+07,-62.0866
5.35512e+07,-60.7287
5.36179e+07,-61.5886
5.36846e+07,-61.7756
5.37513e+07,-63.5001
5.38179e+07,-62.2091
5.38846e+07,-62.4686
5.39513e+07,-62.8352
5.4018e+07,-62.8988
5.40847e+07,-61.9735
5.41514e+07,-62.2858
5.42181e+07,-61.6668
5.42848e+07,-62.3742
5.43515e+07,-62.4341
5.44181e+07,-62.3911
5.44848e+07,-62.3227
5.45515e+07,-63.3677
5.46182e+07,-62.3304
5.46849e+07,-63.0017
5.47516e+07,-63.3128
5.48183e+07,-62.9053
5.4885e+07,-63.8577
5.49517e+07,-61.9961
5.50183e+07,-63.2619
5.5085e+07,-63.9027
5.51517e+07,-62.916
5.52184e+07,-62.9442
5.52851e+07,-61.3147
5.53518e+07,-63.3061
5.54185e+07,-63.0679
5.54852e+07,-64.3616
5.55519e+07,-63.6019
5.56185e+07,-62.5944
5.56852e+07,-62.2846
5.57519e+07,-63.5627
5.58186e+07,-61.946
5.58853e+07,-63.4094
5.5952e+07,-62.7401
5.60187e+07,-62.6895
5.60854e+07,-63.1853
5.61521e+07,-63.3192
5.62187e+07,-63.8998
5.62854e+07,-61.3793
5.63521e+07,-63.7382
5.64188e+07,-63.8638
5.64855e+07,-61.8905
5.65522e+07,-61.6671
5.66189e+07,-62.8896
5.66856e+07,-63.293
5.67523e+07,-63.0427
5.68189e+07,-62.8489
5.68856e+07,-63.0109
5.69523e+07,-62.2589
5.7019e+07,-61.7667
5.70857e+07,-62.7433
5.71524e+07,-62.0032
5.72191e+07,-63.5711
5.72858e+07,-63.3372
5.73525e+07,-61.1723
5.74191e+07,-61.7344
5.74858e+07,-62.7214
5.75525e+07,-61.4899
5.76192e+07,-62.2962
5.76859e+07,-60.9159
5.77526e+07,-61.7933
5.78193e+07,-62.6426
5.7886e+07,-62.4251
5.79527e+07,-62.4187
5.80193e+07,-62.0207
5.8086e+07,-62.3487
5.81527e+07,-62.2625
5.82194e+07,-62.3082
5.82861e+07,-61.1271
5.83528e+07,-62.1713
5.84195e+07,-61.4396
5.84862e+07,-62.1816
5.85529e+07,-61.0103
5.86195e+07,-61.9436
5.86862e+07,-60.9882
5.87529e+07,-62.3145
5.88196e+07,-59.7677
5.88863e+07,-61.2102
5.8953e+07,-61.8277
5.90197e+07,-61.7849
5.90864e+07,-61.4537
5.91531e+07,-61.6618
5.92197e+07,-61.6234
5.92864e+07,-61.608
5.93531e+07,-61.468
5.94198e+07,-62.2602
5.94865e+07,-62.1488
5.95532e+07,-61.5806
5.96199e+07,-62.3629
5.96866e+07,-62.7556
5.97533e+07,-61.9674
5.98199e+07,-62.4685
5.98866e+07,-61.5128
5.99533e+07,-63.2077
6.002e+07,-63.4757
6.00867e+07,-63.0873
6.01534e+07,-63.4253
6.02201e+07,-62.3917
6.02868e+07,-63.3856
6.03535e+07,-63.0983
6.04201e+07,-62.4949
6.04868e+07,-63.7551
6.05535e+07,-62.9156
6.06202e+07,-63.5138
6.06869e+07,-63.8933
6.07536e+07,-63.8854
6.08203e+07,-63.0137
6.0887e+07,-63.7498
6.09537e+07,-63.236
6.10203e+07,-64.0801
6.1087e+07,-64.1685
6.11537e+07,-63.1116
6.12204e+07,-64.3238
6.12871e+07,-63.0264
6.13538e+07,-63.7976
6.14205e+07,-64.3271
6.14872e+07,-63.5577
6.15539e+07,-63.444
6.16205e+07,-64.1072
6.16872e+07,-64.2981
6.17539e+07,-63.766
6.18206e+07,-63.588
6.18873e+07,-63.0562
6.1954e+07,-63.3237
6.20207e+07,-63.7726
6.20874e+07,-63.835
6.21541e+07,-63.4746
6.22207e+07,-60.8652
6.22874e+07,-63.1843
6.23541e+07,-63.8881
6.24208e+07,-63.8325
6.24875e+07,-63.236
6.25542e+07,-63.6481
6.26209e+07,-63.4873
6.26876e+07,-62.8819
6.27543e+07,-62.6331
6.28209e+07,-62.3594
6.28876e+07,-61.931
6.29543e+07,-63.6946
6.3021e+07,-62.7148
6.30877e+07,-62.4706
6.31544e+07,-63.7759
6.32211e+07,-63.6579
6.32878e+07,-62.8084
6.33545e+07,-63.6054
6.34211e+07,-62.3448
6.34878e+07,-62.6284
6.35545e+07,-62.8578
6.36212e+07,-63.0771
6.36879e+07,-63.5
6.37546e+07,-62.8735
6.38213e+07,-62.1174
6.3888e+07,-61.9889
6.39547e+07,-63.3963
6.40213e+07,-61.4997
6.4088e+07,-62.793
6.41547e+07,-63.3215
6.42214e+07,-62.4726
6.42881e+07,-62.1543
6.43548e+07,-61.6681
6.44215e+07,-62.9344
6.44882e+07,-61.116
6.45549e+07,-63.3518
6.46215e+07,-62.1435
6.46882e+07,-63.4464
6.47549e+07,-62.1704
6.48216e+07,-63.0325
6.48883e+07,-63.4181
6.4955e+07,-61.6564
6.50217e+07,-61.3849
6.50884e+07,-61.5804
6.51551e+07,-62.7469
6.52217e+07,-62.2216
6.52884e+07,-62.366
6.53551e+07,-63.4392
6.54218e+07,-63.3714
6.54885e+07,-60.9807
6.55552e+07,-61.9771
6.56219e+07,-63.227
6.56886e+07,-63.6822
6.57553e+07,-62.4977
6.58219e+07,-62.3512
6.58886e+07,-63.398
6.59553e+07,-62.6587
6.6022e+07,-62.181
6.60887e+07,-63.2669
6.61554e+07,-63.482
6.62221e+07,-64.1547
6.62888e+07,-63.7342
6.63555e+07,-63.2545
6.64221e+07,-63.6213
6.64888e+07,-63.4377
6.65555e+07,-63.6906
6.66222e+07,-62.9022
6.66889e+07,-64.2852
6.67556e+07,-63.1971
6.68223e+07,-62.8153
6.6889e+07,-62.6364
6.69557e+07,-63.3738
6.70223e+07,-63.8771
6.7089e+07,-62.8921
6.71557e+07,-62.3679
6.72224e+07,-63.605
6.72891e+07,-63.0404
6.73558e+07,-63.7099
6.74225e+07,-62.1077
6.74892e+07,-63.1249
6.75559e+07,-63.0442
6.76225e+07,-63.5761
6.76892e+07,-63.8159
6.77559e+07,-63.5591
6.78226e+07,-63.6978
6.78893e+07,-63.8245
6.7956e+07,-62.886
6.80227e+07,-64.0516
6.80894e+07,-63.1769
6.81561e+07,-62.9795
6.82227e+07,-62.6798
6.82894e+07,-63.1163
6.83561e+07,-63.7251
6.84228e+07,-62.275
6.84895e+07,-63.6544
6.85562e+07,-63.2591
6.86229e+07,-62.9606
6.86896e+07,-63.6259
6.87563e+07,-64
6.88229e+07,-62.977
6.88896e+07,-62.082
6.89563e+07,-63.955
6.9023e+07,-63.4578
6.90897e+07,-63.8036
6.91564e+07,-64.1752
6.92231e+07,-63.501
6.92898e+07,-63.9282
6.93565e+07,-63.164
6.94231e+07,-62.875
6.94898e+07,-63.8891
6.95565e+07,-63.1633
6.96232e+07,-62.4466
6.96899e+07,-63.7931
6.97566e+07,-62.7741
6.98233e+07,-62.9925
6.989e+07,-62.2986
6.99567e+07,-62.4744
7.00233e+07,-62.7709
7.009e+07,-61.8443
7.01567e+07,-61.7114
7.02234e+07,-63.6522
7.02901e+07,-62.8912
7.03568e+07,-62.9467
7.04235e+07,-63.3286
7.04902e+07,-62.967
7.05569e+07,-62.1027
7.06235e+07,-62.7905
7.06902e+07,-62.2822
7.07569e+07,-63.5615
7.08236e+07,-61.9893
7.08903e+07,-63.0096
7.0957e+07,-62.6981
7.10237e+07,-63.3389
7.10904e+07,-62.5534
7.11571e+07,-62.7951
7.12237e+07,-62.0529
7.12904e+07,-62.6685
7.13571e+07,-62.8593
7.14238e+07,-62.8732
7.14905e+07,-62.7534
7.15572e+07,-62.9916
7.16239e+07,-61.2733
7.16906e+07,-63.3916
7.17573e+07,-62.7115
7.18239e+07,-63.5665
7.18906e+07,-62.4856
7.19573e+07,-61.7813
7.2024e+07,-63.135
7.20907e+07,-61.3004
7.21574e+07,-63.6228
7.22241e+07,-64.1503
7.22908e+07,-62.6224
7.23575e+07,-63.4191
7.24241e+07,-62.192
7.24908e+07,-62.5636
7.25575e+07,-62.6538
7.26242e+07,-63.1412
7.26909e+07,-63.8313
7.27576e+07,-63.9153
7.28243e+07,-63.5478
7.2891e+07,-62.5658
7.29577e+07,-63.5939
7.30243e+07,-64.243
7.3091e+07,-64.1156
7.31577e+07,-63.6528
7.32244e+07,-63.9108
7.32911e+07,-63.7592
7.33578e+07,-63.265
7.34245e+07,-62.6994
7.34912e+07,-63.9941
7.35579e+07,-63.9631
7.36245e+07,-64.9302
7.36912e+07,-64.1777
7.37579e+07,-62.4977
7.38246e+07,-64.3192
7.38913e+07,-62.4828
7.3958e+07,-62.638
7.40247e+07,-64.0264
7.40914e+07,-64.1867
7.41581e+07,-64.236
7.42247e+07,-64.1535
7.42914e+07,-64.0112
7.43581e+07,-64.8261
7.44248e+07,-64.5566
7.44915e+07,-62.5942
7.45582e+07,-65.0308
7.46249e+07,-64.0007
7.46916e+07,-63.7584
7.47583e+07,-64.6369
7.48249e+07,-64.7519
7.48916e+07,-64.6081
7.49583e+07,-64.802
7.5025e+07,-64.484
7.50917e+07,-64.2912
7.51584e+07,-64.371
7.52251e+07,-65.1812
7.52918e+07,-64.8005
7.53585e+07,-64.4487
7.54251e+07,-63.7878
7.54918e+07,-65.1808
7.55585e+07,-61.4229
7.56252e+07,-64.0381
7.56919e+07,-63.9311
7.57586e+07,-63.5441
7.58253e+07,-63.9086
7.5892e+07,-64.8297
7.59587e+07,-63.7829
7.60253e+07,-64.4546
7.6092e+07,-63.6471
7.61587e+07,-64.9269
7.62254e+07,-63.1265
7.62921e+07,-62.2641
7.63588e+07,-63.6878
7.64255e+07,-64.406
7.64922e+07,-62.9575
7.65589e+07,-64.3714
7.66255e+07,-62.402
7.66922e+07,-63.7429
7.67589e+07,-64.4193
7.68256e+07,-64.3763
7.68923e+07,-64.5115
7.6959e+07,-64.1248
7.70257e+07,-64.2324
7.70924e+07,-64.7282
7.71591e+07,-64.6408
7.72257e+07,-63.5108
7.72924e+07,-63.9449
7.73591e+07,-63.5129
7.74258e+07,-63.4665
7.74925e+07,-64.9913
7.75592e+07,-63.4004
7.76259e+07,-64.26
7.76926e+07,-64.3599
7.77593e+07,-64.1097
7.78259e+07,-64.2201
7.78926e+07,-64.7407
7.79593e+07,-63.7064
7.8026e+07,-64.3747
7.80927e+07,-64.6777
7.81594e+07,-65.7838
7.82261e+07,-64.9377
7.82928e+07,-64.8138
7.83595e+07,-64.5382
7.84261e+07,-65.1772
7.84928e+07,-65.099
7.85595e+07,-65.0846
7.86262e+07,-65.0932
7.86929e+07,-65.0163
7.87596e+07,-65.0825
7.88263e+07,-65.1369
7.8893e+07,-66.1758
7.89597e+07,-63.9597
7.90263e+07,-65.3966
7.9093e+07,-64.1545
7.91597e+07,-65.7276
7.92264e+07,-65.4369
7.92931e+07,-65.9282
7.93598e+07,-64.9816
7.94265e+07,-65.5847
7.94932e+07,-65.8338
7.95599e+07,-65.1481
7.96265e+07,-66.0982
7.96932e+07,-66.0167
7.97599e+07,-66.3486
7.98266e+07,-65.8576
7.98933e+07,-65.4851
7.996e+07,-65.7639
8.00267e+07,-65.8943
8.00934e+07,-66.2603
8.01601e+07,-65.6482
8.02267e+07,-65.8822
8.02934e+07,-66.0307
8.03601e+07,-65.989
8.04268e+07,-65.7871
8.04935e+07,-65.8838
8.05602e+07,-65.8586
8.06269e+07,-65.1174
8.06936e+07,-66.4008
8.07603e+07,-65.8835
8.08269e+07,-65.9114
8.08936e+07,-64.8694
8.09603e+07,-66.5361
8.1027e+07,-67.0549
8.10937e+07,-66.5009
8.11604e+07,-66.8284
8.12271e+07,-65.9427
8.12938e+07,-66.6031
8.13605e+07,-65.9666
8.14271e+07,-66.1653
8.14938e+07,-64.7534
8.15605e+07,-65.8077
8.16272e+07,-65.9391
8.16939e+07,-66.6366
8.17606e+07,-67.2526
8.18273e+07,-66.3518
8.1894e+07,-67.6584
8.19607e+07,-66.3564
8.20273e+07,-67.3982
8.2094e+07,-67.7602
8.21607e+07,-67.0478
8.22274e+07,-67.7614
8.22941e+07,-67.9871
8.23608e+07,-67.8147
8.24275e+07,-67.7446
8.24942e+07,-68.2208
8.25609e+07,-67.9491
8.26275e+07,-67.2731
8.26942e+07,-68.6383
8.27609e+07,-68.7717
8.28276e+07,-67.9996
8.28943e+07,-68.5202
8.2961e+07,-68.4109
8.30277e+07,-68.7656
8.30944e+07,-69.3711
8.31611e+07,-69.2811
8.32277e+07,-67.19
8.32944e+07,-67.4967
8.33611e+07,-69.3172
8.34278e+07,-69.5036
8.34945e+07,-68.8688
8.35612e+07,-69.2233
8.36279e+07,-70.0348
8.36946e+07,-68.8018
8.37613e+07,-69.2583
8.38279e+07,-69.2919
8.38946e+07,-70.2477
8.39613e+07,-69.9451
8.4028e+07,-69.0873
8.40947e+07,-68.8352
8.41614e+07,-69.9909
8.42281e+07,-70.0379
8.42948e+07,-69.607
8.43615e+07,-70.5349
8.44281e+07,-69.362
8.44948e+07,-70.6794
8.45615e+07,-70.6329
8.46282e+07,-69.4135
8.46949e+07,-69.934
8.47616e+07,-70.3819
8.48283e+07,-70.5284
8.4895e+07,-70.0758
8.49617e+07,-69.7751
8.50283e+07,-70.5007
8.5095e+07,-71.6858
8.51617e+07,-69.636
8.52284e+07,-71.6929
8.52951e+07,-71.6406
8.53618e+07,-71.8796
8.54285e+07,-71.4681
8.54952e+07,-71.5263
8.55619e+07,-73.08
8.56285e+07,-71.893
8.56952e+07,-73.1306
8.57619e+07,-73.7204
8.58286e+07,-74.2025
8.58953e+07,-74.0857
8.5962e+07,-73.8452
8.60287e+07,-73.8848
8.60954e+07,-74.7034
8.61621e+07,-75.0663
8.62287e+07,-74.2583
8.62954e+07,-75.4839
8.63621e+07,-77.7257
8.64288e+07,-76.9427
8.64955e+07,-77.1866
8.65622e+07,-77.4555
8.66289e+07,-77.7191
8.66956e+07,-77.597
8.67623e+07,-79.4158
8.68289e+07,-78.4984
8.68956e+07,-78.2437
8.69623e+07,-78.0057
8.7029e+07,-79.6966
8.70957e+07,-79.1285
8.71624e+07,-79.9013
8.72291e+07,-79.1684
8.72958e+07,-80.684
8.73625e+07,-79.5931
8.74291e+07,-79.7023
8.74958e+07,-79.0766
8.75625e+07,-80.1701
8.76292e+07,-79.5825
8.76959e+07,-79.4397
8.77626e+07,-80.9013
8.78293e+07,-81.283
8.7896e+07,-80.9003
8.79627e+07,-80.8234
8.80293e+07,-80.1881
8.8096e+07,-80.8921
8.81627e+07,-80.645
8.82294e+07,-81.7017
8.82961e+07,-81.1102
8.83628e+07,-80.9068
8.84295e+07,-80.9734
8.84962e+07,-80.2495
8.85629e+07,-81.1769
8.86295e+07,-81.6585
8.86962e+07,-82.0532
8.87629e+07,-81.4166
8.88296e+07,-81.8934
8.88963e+07,-80.9296
8.8963e+07,-81.4756
8.90297e+07,-81.2218
8.90964e+07,-81.2491
8.91631e+07,-81.8722
8.92297e+07,-81.5022
8.92964e+07,-81.9841
8.93631e+07,-81.8446
8.94298e+07,-81.2327
8.94965e+07,-82.9594
8.95632e+07,-81.8356
8.96299e+07,-82.5933
8.96966e+07,-82.7942
8.97633e+07,-81.973
8.98299e+07,-83.4359
8.98966e+07,-81.8071
8.99633e+07,-81.3899
9.003e+07,-81.608
9.00967e+07,-82.3021
9.01634e+07,-81.6652
9.02301e+07,-82.1376
9.02968e+07,-82.0488
9.03635e+07,-81.4046
9.04301e+07,-82.772
9.04968e+07,-82.7674
9.05635e+07,-83.731
9.06302e+07,-81.4881
9.06969e+07,-82.6015
9.07636e+07,-82.516
9.08303e+07,-82.1601
9.0897e+07,-82.0138
9.09637e+07,-82.5266
9.10303e+07,-81.699
9.1097e+07,-82.6434
9.11637e+07,-81.8647
9.12304e+07,-82.6629
9.12971e+07,-82.4477
9.13638e+07,-83.1555
9.14305e+07,-82.6737
9.14972e+07,-82.5752
9.15639e+07,-83.4229
9.16305e+07,-83.232
9.16972e+07,-83.14
9.17639e+07,-82.7124
9.18306e+07,-82.8617
9.18973e+07,-83.398
9.1964e+07,-84.246
9.20307e+07,-84.48
9.20974e+07,-82.6196
9.21641e+07,-84.7201
9.22307e+07,-84.0781
9.22974e+07,-83.9959
9.23641e+07,-85.5532
9.24308e+07,-84.4266
9.24975e+07,-84.5171
9.25642e+07,-84.5369
9.26309e+07,-83.523
9.26976e+07,-84.9427
9.27643e+07,-85.1311
9.28309e+07,-84.5809
9.28976e+07,-83.6397
9.29643e+07,-83.9622
9.3031e+07,-83.9522
9.30977e+07,-83.7167
9.31644e+07,-83.9274
9.32311e+07,-84.4913
9.32978e+07,-84.2705
9.33645e+07,-83.8549
9.34311e+07,-85.1152
9.34978e+07,-83.1048
9.35645e+07,-84.6836
9.36312e+07,-85.3624
9.36979e+07,-83.7029
9.37646e+07,-84.0184
9.38313e+07,-84.0468
9.3898e+07,-84.0898
9.39647e+07,-84.8112
9.40313e+07,-83.9019
9.4098e+07,-85.2088
9.41647e+07,-85.1479
9.42314e+07,-83.9099
9.42981e+07,-85.0111
9.43648e+07,-83.9565
9.44315e+07,-84.7867
9.44982e+07,-84.9238
9.45649e+07,-83.6686
9.46315e+07,-83.0704
9.46982e+07,-84.0935
9.47649e+07,-83.6395
9.48316e+07,-83.6574
9.48983e+07,-85.4828
9.4965e+07,-84.1646
9.50317e+07,-84.709
9.50984e+07,-84.9621
9.51651e+07,-83.7104
9.52317e+07,-84.2018
9.52984e+07,-85.112
9.53651e+07,-84.0885
9.54318e+07,-84.0396
9.54985e+07,-85.616
9.55652e+07,-83.9427
9.56319e+07,-84.6837
9.56986e+07,-85.5225
9.57653e+07,-84.4368
9.58319e+07,-84.0753
9.58986e+07,-83.8974
9.59653e+07,-84.5063
9.6032e+07,-84.6237
9.60987e+07,-84.3739
9.61654e+07,-84.1263
9.62321e+07,-83.5688
9.62988e+07,-83.4864
9.63655e+07,-84.3269
9.64321e+07,-84.559
9.64988e+07,-84.2119
9.65655e+07,-83.3675
9.66322e+07,-84.4102
9.66989e+07,-84.1028
9.67656e+07,-84.0974
9.68323e+07,-83.4463
9.6899e+07,-84.0916
9.69657e+07,-83.8185
9.70323e+07,-84.478
9.7099e+07,-83.3635
9.71657e+07,-83.945
9.72324e+07,-83.2824
9.72991e+07,-83.713
9.73658e+07,-83.9388
9.74325e+07,-84.7642
9.74992e+07,-83.9808
9.75659e+07,-83.7064
9.76325e+07,-83.0825
9.76992e+07,-84.2226
9.77659e+07,-82.8004
9.78326e+07,-83.4523
9.78993e+07,-83.9539
9.7966e+07,-82.8662
9.80327e+07,-83.7029
9.80994e+07,-82.1133
9.81661e+07,-83.9519
9.82327e+07,-83.3639
9.82994e+07,-84.3274
9.83661e+07,-84.2523
9.84328e+07,-81.1825
9.84995e+07,-83.4023
9.85662e+07,-84.6254
9.86329e+07,-83.3163
9.86996e+07,-83.6932
9.87663e+07,-83.4273
9.88329e+07,-83.1823
9.88996e+07,-82.5116
9.89663e+07,-83.7988
9.9033e+07,-83.475
9.90997e+07,-82.1797
9.91664e+07,-83.5058
9.92331e+07,-82.5253
9.92998e+07,-82.586
9.93665e+07,-83.6142
9.94331e+07,-82.906
9.94998e+07,-83.0425
9.95665e+07,-83.055
9.96332e+07,-82.8242
9.96999e+07,-83.1539
9.97666e+07,-83.4018
9.98333e+07,-82.5943
9.99e+07,-82.911
9.99667e+07,-82.7047
1.00033e+08,-83.0256
1.001e+08,-82.3259
1.00167e+08,-83.4213
1.00233e+08,-83.6031
1.003e+08,-82.9892
1.00367e+08,-83.4243
1.00433e+08,-82.9625
1.005e+08,-83.5643
1.00567e+08,-82.4869
1.00634e+08,-82.3537
1.007e+08,-81.7149
1.00767e+08,-82.649
1.00834e+08,-83.0975
1.009e+08,-82.6521
1.00967e+08,-82.6516
1.01034e+08,-82.958
1.011e+08,-82.5643
1.01167e+08,-82.172
1.01234e+08,-82.4053
1.013e+08,-82.2023
1.01367e+08,-82.0309
1.01434e+08,-83.0886
1.01501e+08,-82.2638
1.01567e+08,-82.8773
1.01634e+08,-82.7672
1.01701e+08,-82.983
1.01767e+08,-81.4117
1.01834e+08,-83.4043
1.01901e+08,-81.0458
1.01967e+08,-82.7731
1.02034e+08,-82.6024
1.02101e+08,-82.0447
1.02167e+08,-82.8643
1.02234e+08,-81.344
1.02301e+08,-83.505
1.02367e+08,-82.6081
1.02434e+08,-81.9311
1.02501e+08,-82.4279
1.02568e+08,-82.4678
1.02634e+08,-83.4661
1.02701e+08,-83.3797
1.02768e+08,-82.4421
1.02834e+08,-81.0046
1.02901e+08,-82.12
1.02968e+08,-82.8118
1.03034e+08,-82.1893
1.03101e+08,-82.0141
1.03168e+08,-82.9035
1.03234e+08,-81.9365
1.03301e+08,-82.9452
1.03368e+08,-81.9355
1.03434e+08,-81.9847
1.03501e+08,-82.2409
1.03568e+08,-82.0994
1.03635e+08,-82.748
1.03701e+08,-82.7685
1.03768e+08,-81.8755
1.03835e+08,-81.3426
1.03901e+08,-82.0466
1.03968e+08,-81.2284
1.04035e+08,-82.745
1.04101e+08,-81.405
1.04168e+08,-82.8324
1.04235e+08,-80.7311
1.04301e+08,-82.7472
1.04368e+08,-82.2463
1.04435e+08,-80.9925
1.04502e+08,-81.3519
1.04568e+08,-82.2725
1.04635e+08,-81.241
1.04702e+08,-82.8115
1.04768e+08,-82.1099
1.04835e+08,-81.6914
1.04902e+08,-81.8481
1.04968e+08,-81.3163
1.05035e+08,-82.0188
1.05102e+08,-82.9275
1.05168e+08,-79.5373
1.05235e+08,-81.4613
1.05302e+08,-82.8154
1.05368e+08,-82.5282
1.05435e+08,-81.6868
1.05502e+08,-81.8663
1.05569e+08,-81.3617
1.05635e+08,-80.9324
1.05702e+08,-81.6997
1.05769e+08,-81.9289
1.05835e+08,-82.6358
1.05902e+08,-81.8974
1.05969e+08,-81.4775
1.06035e+08,-82.8311
1.06102e+08,-81.7939
1.06169e+08,-82.6706
1.06235e+08,-82.1889
1.06302e+08,-82.2595
1.06369e+08,-82.3067
1.06435e+08,-81.7016
1.06502e+08,-82.4748
1.06569e+08,-81.8356
1.06636e+08,-81.2755
1.06702e+08,-81.5667
1.06769e+08,-81.8682
1.06836e+08,-82.745
1.06902e+08,-82.1251
1.06969e+08,-82.0004
1.07036e+08,-81.2937
1.07102e+08,-82.84
1.07169e+08,-81.8538
1.07236e+08,-81.8344
1.07302e+08,-81.7324
1.07369e+08,-82.0787
1.07436e+08,-82.3227
1.07503e+08,-81.8399
1.07569e+08,-82.7984
1.07636e+08,-81.5159
1.07703e+08,-81.7107
1.07769e+08,-82.3643
1.07836e+08,-81.8829
1.07903e+08,-82.8128
1.07969e+08,-81.8402
1.08036e+08,-80.5577
1.08103e+08,-82.6603
1.08169e+08,-81.8728
1.08236e+08,-81.9028
1.08303e+08,-81.3484
1.08369e+08,-81.8942
1.08436e+08,-82.7413
1.08503e+08,-82.4558
1.0857e+08,-81.6005
1.08636e+08,-80.3499
1.08703e+08,-82.2733
1.0877e+08,-82.0101
1.08836e+08,-81.2696
1.08903e+08,-81.8635
1.0897e+08,-82.3633
1.09036e+08,-82.1404
1.09103e+08,-81.6668
1.0917e+08,-81.4607
1.09236e+08,-82.2454
1.09303e+08,-82.3648
1.0937e+08,-81.344
1.09436e+08,-81.7839
1.09503e+08,-82.3996
1.0957e+08,-82.8045
1.09637e+08,-82.5701
1.09703e+08,-80.4285
1.0977e+08,-82.7692
1.09837e+08,-80.7859
1.09903e+08,-81.9977
1.0997e+08,-82.5141
1.10037e+08,-82.4118
1.10103e+08,-81.253
1.1017e+08,-82.0811
1.10237e+08,-80.7997
1.10303e+08,-82.4341
1.1037e+08,-81.8184
1.10437e+08,-81.4078
1.10504e+08,-80.8281
1.1057e+08,-81.5524
1.10637e+08,-81.2454
1.10704e+08,-80.7626
1.1077e+08,-82.147
1.10837e+08,-82.3453
1.10904e+08,-82.2927
1.1097e+08,-80.7942
1.11037e+08,-82.3881
1.11104e+08,-81.9348
1.1117e+08,-80.4886
1.11237e+08,-80.9586
1.11304e+08,-81.7323
1.1137e+08,-81.1064
1.11437e+08,-81.3643
1.11504e+08,-81.5197
1.11571e+08,-81.6631
1.11637e+08,-81.904
1.11704e+08,-79.5464
1.11771e+08,-82.2503
1.11837e+08,-81.4698
1.11904e+08,-81.1865
1.11971e+08,-81.6862
1.12037e+08,-81.2456
1.12104e+08,-81.1604
1.12171e+08,-81.7296
1.12237e+08,-81.0964
1.12304e+08,-81.4155
1.12371e+08,-81.9715
1.12437e+08,-81.5237
1.12504e+08,-80.9354
1.12571e+08,-81.1113
1.12638e+08,-81.4966
1.12704e+08,-81.0546
1.12771e+08,-81.297
1.12838e+08,-81.3359
1.12904e+08,-81.4764
1.12971e+08,-81.8406
1.13038e+08,-80.7184
1.13104e+08,-81.9429
1.13171e+08,-81.0546
1.13238e+08,-82.0893
1.13304e+08,-81.3611
1.13371e+08,-80.9084
1.13438e+08,-81.6789
1.13505e+08,-82.1462
1.13571e+08,-80.9411
1.13638e+08,-81.42
1.13705e+08,-81.1765
1.13771e+08,-81.7929
1.13838e+08,-81.9914
1.13905e+08,-82.2902
1.13971e+08,-81.6898
1.14038e+08,-81.7758
1.14105e+08,-81.8626
1.14171e+08,-80.8412
1.14238e+08,-80.9122
1.14305e+08,-81.3716
1.14371e+08,-81.4799
1.14438e+08,-81.2595
1.14505e+08,-81.4026
1.14572e+08,-81.2942
1.14638e+08,-80.8853
1.14705e+08,-81.5914
1.14772e+08,-80.0493
1.14838e+08,-81.8304
1.14905e+08,-81.5899
1.14972e+08,-80.7441
1.15038e+08,-81.0998
1.15105e+08,-79.9666
1.15172e+08,-80.912
1.15238e+08,-81.7028
1.15305e+08,-82.2957
1.15372e+08,-81.8913
1.15438e+08,-81.3956
1.15505e+08,-81.0371
1.15572e+08,-81.8173
1.15639e+08,-81.3184
1.15705e+08,-81.3215
1.15772e+08,-79.6333
1.15839e+08,-82.1365
1.15905e+08,-80.4889
1.15972e+08,-81.5782
1.16039e+08,-81.1379
1.16105e+08,-81.9705
1.16172e+08,-81.1721
1.16239e+08,-81.6207
1.16305e+08,-81.7588
1.16372e+08,-81.6981
1.16439e+08,-80.5176
1.16506e+08,-80.689
1.16572e+08,-81.7003
1.16639e+08,-81.3074
1.16706e+08,-82.3821
1.16772e+08,-81.9115
1.16839e+08,-81.0444
1.16906e+08,-81.538
1.16972e+08,-80.3065
1.17039e+08,-81.8215
1.17106e+08,-80.9835
1.17172e+08,-81.5877
1.17239e+08,-80.9411
1.17306e+08,-80.6997
1.17372e+08,-81.1279
1.17439e+08,-80.6454
1.17506e+08,-81.504
1.17573e+08,-81.3291
1.17639e+08,-80.8901
1.17706e+08,-82.1462
1.17773e+08,-81.2631
1.17839e+08,-81.4539
1.17906e+08,-81.3843
1.17973e+08,-81.7425
1.18039e+08,-81.3004
1.18106e+08,-81.4373
1.18173e+08,-81.15
1.18239e+08,-82.2938
1.18306e+08,-81.793
1.18373e+08,-81.6046
1.18439e+08,-80.1309
1.18506e+08,-81.3871
1.18573e+08,-81.1824
1.1864e+08,-81.0274
1.18706e+08,-82.3387
1.18773e+08,-81.6763
1.1884e+08,-81.59
1.18906e+08,-80.2856
1.18973e+08,-80.6973
1.1904e+08,-81.7081
1.19106e+08,-80.9271
1.19173e+08,-80.6025
1.1924e+08,-80.3763
1.19306e+08,-81.1698
1.19373e+08,-82.2411
1.1944e+08,-81.7921
1.19507e+08,-80.6465
1.19573e+08,-81.7343
1.1964e+08,-81.1461
1.19707e+08,-81.7144
1.19773e+08,-80.6946
1.1984e+08,-81.8081
1.19907e+08,-80.3358
1.19973e+08,-81.3399
1.2004e+08,-81.5329
1.20107e+08,-81.3101
1.20173e+08,-81.1668
1.2024e+08,-81.1947
1.20307e+08,-81.8237
1.20373e+08,-80.5373
1.2044e+08,-81.2968
1.20507e+08,-81.5072
1.20574e+08,-78.921
1.2064e+08,-81.4842
1.20707e+08,-81.1169
1.20774e+08,-80.7679
1.2084e+08,-81.8006
1.20907e+08,-81.7697
1.20974e+08,-80.373
1.2104e+08,-81.2385
1.21107e+08,-81.2631
1.21174e+08,-80.792
1.2124e+08,-81.392
1.21307e+08,-81.9392
1.21374e+08,-81.4713
1.2144e+08,-80.6087
1.21507e+08,-81.1356
1.21574e+08,-81.2524
1.21641e+08,-81.9639
1.21707e+08,-80.4781
1.21774e+08,-82.1118
1.21841e+08,-81.254
1.21907e+08,-82.095
1.21974e+08,-81.4375
1.22041e+08,-81.0333
1.22107e+08,-81.2987
1.22174e+08,-80.987
1.22241e+08,-82.1043
1.22307e+08,-80.8859
1.22374e+08,-81.1044
1.22441e+08,-81.6077
1.22508e+08,-80.8947
1.22574e+08,-80.9875
1.22641e+08,-81.1342
1.22708e+08,-80.7197
1.22774e+08,-80.7057
1.22841e+08,-81.9782
1.22908e+08,-81.4342
1.22974e+08,-81.16
1.23041e+08,-81.7234
1.23108e+08,-80.4284
1.23174e+08,-80.0111
1.23241e+08,-81.3479
1.23308e+08,-81.7214
1.23374e+08,-81.1676
1.23441e+08,-81.4485
1.23508e+08,-80.2863
1.23575e+08,-81.1201
1.23641e+08,-81.5688
1.23708e+08,-81.0874
1.23775e+08,-80.9959
1.23841e+08,-80.5278
1.23908e+08,-80.8911
1.23975e+08,-80.3375
1.24041e+08,-81.697
1.24108e+08,-80.582
1.24175e+08,-80.9859
1.24241e+08,-81.6917
1.24308e+08,-81.7063
1.24375e+08,-81.994
1.24441e+08,-81.452
1.24508e+08,-82.2628
1.24575e+08,-81.7043
1.24642e+08,-81.3737
1.24708e+08,-80.8542
1.24775e+08,-80.0395
1.24842e+08,-81.2602
1.24908e+08,-79.9485
1.24975e+08,-81.5032
1.25042e+08,-81.5807
1.25108e+08,-79.9655
1.25175e+08,-81.0799
1.25242e+08,-82.0463
1.25308e+08,-81.6198
1.25375e+08,-80.5262
1.25442e+08,-80.8692
1.25509e+08,-81.4771
1.25575e+08,-81.5283
1.25642e+08,-81.4687
1.25709e+08,-80.7207
1.25775e+08,-81.0332
1.25842e+08,-81.2025
1.25909e+08,-81.2342
1.25975e+08,-80.0056
1.26042e+08,-80.1907
1.26109e+08,-81.4395
1.26175e+08,-81.8795
1.26242e+08,-81.553
1.26309e+08,-81.2635
1.26375e+08,-80.43
1.26442e+08,-81.6338
1.26509e+08,-80.4486
1.26576e+08,-81.2328
1.26642e+08,-81.2899
1.26709e+08,-81.5607
1.26776e+08,-79.9654
1.26842e+08,-81.3645
1.26909e+08,-80.9203
1.26976e+08,-82.1123
1.27042e+08,-81.0624
1.27109e+08,-79.6344
1.27176e+08,-80.5094
1.27242e+08,-82.0826
1.27309e+08,-81.9408
1.27376e+08,-81.2627
1.27442e+08,-81.1727
1.27509e+08,-80.6769
1.27576e+08,-81.1788
1.27643e+08,-80.2105
1.27709e+08,-81.8951
1.27776e+08,-80.0765
1.27843e+08,-80.7522
1.27909e+08,-81.6906
1.27976e+08,-80.613
1.28043e+08,-81.4802
1.28109e+08,-80.9564
1.28176e+08,-81.3182
1.28243e+08,-81.5158
1.28309e+08,-81.2126
1.28376e+08,-80.8748
1.28443e+08,-81.2981
1.2851e+08,-81.154
1.28576e+08,-81.7884
1.28643e+08,-80.9455
1.2871e+08,-81.3105
1.28776e+08,-80.9445
1.28843e+08,-81.335
1.2891e+08,-81.4222
1.28976e+08,-81.0725
1.29043e+08,-81.0087
1.2911e+08,-79.2684
1.29176e+08,-81.5385
1.29243e+08,-81.1734
1.2931e+08,-80.3656
1.29376e+08,-80.8569
1.29443e+08,-82.0109
1.2951e+08,-80.9008
1.29577e+08,-80.928
1.29643e+08,-81.7728
1.2971e+08,-81.4345
1.29777e+08,-81.8139
1.29843e+08,-80.4269
1.2991e+08,-80.8014
1.29977e+08,-81.2073
1.30043e+08,-81.0928
1.3011e+08,-80.081
1.30177e+08,-80.5299
1.30243e+08,-81.2954
1.3031e+08,-80.5024
1.30377e+08,-81.0409
1.30443e+08,-79.9721
1.3051e+08,-80.6679
1.30577e+08,-81.7849
1.30644e+08,-81.2671
1.3071e+08,-80.4796
1.30777e+08,-81.1156
1.30844e+08,-80.8804
1.3091e+08,-79.8082
1.30977e+08,-81.964
1.31044e+08,-79.3839
1.3111e+08,-81.3216
1.31177e+08,-80.8228
1.31244e+08,-80.8154
1.3131e+08,-80.7773
1.31377e+08,-81.2399
1.31444e+08,-79.9552
1.31511e+08,-80.3588
1.31577e+08,-80.6869
1.31644e+08,-81.3504
1.31711e+08,-80.2024
1.31777e+08,-80.4551
1.31844e+08,-81.2762
1.31911e+08,-81.1356
1.31977e+08,-80.1239
1.32044e+08,-81.4134
1.32111e+08,-80.2636
1.32177e+08,-79.6894
1.32244e+08,-81.3459
1.32311e+08,-81.36
1.32377e+08,-81.1965
1.32444e+08,-81.2789
1.32511e+08,-79.9659
1.32578e+08,-81.2345
1.32644e+08,-80.475
1.32711e+08,-80.3335
1.32778e+08,-81.6693
1.32844e+08,-81.4
1.32911e+08,-82.0282
1.32978e+08,-81.7134
1.33044e+08,-80.6962
1.33111e+08,-80.8807
1.33178e+08,-80.8181
1.33244e+08,-80.6879
1.33311e+08,-80.9802
1.33378e+08,-80.8718
1.33444e+08,-81.0885
1.33511e+08,-80.1219
1.33578e+08,-80.3043
1.33645e+08,-81.8158
1.33711e+08,-79.6568
1.33778e+08,-81.1895
1.33845e+08,-81.552
1.33911e+08,-80.9512
1.33978e+08,-79.8959
1.34045e+08,-78.9438
1.34111e+08,-80.9288
1.34178e+08,-81.7541
1.34245e+08,-80.623
1.34311e+08,-81.3194
1.34378e+08,-80.4884
1.34445e+08,-80.7983
1.34512e+08,-79.7904
1.34578e+08,-79.8759
1.34645e+08,-81.0194
1.34712e+08,-79.2551
1.34778e+08,-81.5263
1.34845e+08,-80.7747
1.34912e+08,-81.1131
1.34978e+08,-79.9505
1.35045e+08,-80.9044
1.35112e+08,-81.3646
1.35178e+08,-80.9347
1.35245e+08,-80.6391
1.35312e+08,-80.9828
1.35378e+08,-81.4289
1.35445e+08,-79.6951
1.35512e+08,-81.1801
1.35579e+08,-80.7486
1.35645e+08,-80.9592
1.35712e+08,-80.7819
1.35779e+08,-80.2135
1.35845e+08,-80.8429
1.35912e+08,-80.3128
1.35979e+08,-81.6339
1.36045e+08,-81.558
1.36112e+08,-79.9296
1.36179e+08,-81.4562
1.36245e+08,-80.7471
1.36312e+08,-79.2748
1.36379e+08,-80.5969
1.36445e+08,-79.6183
1.36512e+08,-80.3441
1.36579e+08,-81.0049
1.36646e+08,-80.8993
1.36712e+08,-79.7923
1.36779e+08,-81.0423
1.36846e+08,-80.2474
1.36912e+08,-80.9287
1.36979e+08,-80.8413
1.37046e+08,-79.8853
1.37112e+08,-81.1108
1.37179e+08,-80.6889
1.37246e+08,-81.2067
1.37312e+08,-80.6608
1.37379e+08,-78.9717
1.37446e+08,-79.7439
1.37513e+08,-80.741
1.37579e+08,-80.5577
1.37646e+08,-80.2965
1.37713e+08,-79.09
1.37779e+08,-81.4331
1.37846e+08,-81.0307
1.37913e+08,-81.6992
1.37979e+08,-79.4756
1.38046e+08,-81.1935
1.38113e+08,-80.8988
1.38179e+08,-80.7634
1.38246e+08,-81.5152
1.38313e+08,-79.8479
1.38379e+08,-81.3181
1.38446e+08,-80.5378
1.38513e+08,-79.9897
1.3858e+08,-79.5394
1.38646e+08,-80.3118
1.38713e+08,-80.5224
1.3878e+08,-80.6261
1.38846e+08,-80.1616
1.38913e+08,-80.3131
1.3898e+08,-79.6595
1.39046e+08,-80.6817
1.39113e+08,-79.3671
1.3918e+08,-80.3503
1.39246e+08,-81.0948
1.39313e+08,-80.7824
1.3938e+08,-80.7338
1.39446e+08,-79.0037
1.39513e+08,-80.8987
1.3958e+08,-81.3531
1.39647e+08,-80.4954
1.39713e+08,-79.4154
1.3978e+08,-80.4148
1.39847e+08,-79.5031
1.39913e+08,-80.8853
1.3998e+08,-81.0041
1.40047e+08,-79.4424
1.40113e+08,-81.1997
1.4018e+08,-80.8868
1.40247e+08,-81.1626
1.40313e+08,-80.7611
1.4038e+08,-80.6649
1.40447e+08,-79.6003
1.40514e+08,-80.1716
1.4058e+08,-80.6532
1.40647e+08,-81.1668
1.40714e+08,-80.5141
1.4078e+08,-80.7542
1.40847e+08,-80.0701
1.40914e+08,-80.5831
1.4098e+08,-80.5456
1.41047e+08,-80.158
1.41114e+08,-80.4777
1.4118e+08,-81.5835
1.41247e+08,-80.3282
1.41314e+08,-79.5488
1.4138e+08,-81.3176
1.41447e+08,-81.4651
1.41514e+08,-81.28
1.41581e+08,-80.4377
1.41647e+08,-80.4571
1.41714e+08,-80.2433
1.41781e+08,-80.4462
1.41847e+08,-80.0119
1.41914e+08,-81.0963
1.41981e+08,-80.0998
1.42047e+08,-81.3826
1.42114e+08,-80.8028
1.42181e+08,-80.785
1.42247e+08,-79.9711
1.42314e+08,-80.2843
1.42381e+08,-80.4317
1.42447e+08,-80.4146
1.42514e+08,-80.6864
1.42581e+08,-80.7613
1.42648e+08,-81.1518
1.42714e+08,-80.8992
1.42781e+08,-80.6198
1.42848e+08,-81.4882
1.42914e+08,-78.8773
1.42981e+08,-80.0573
1.43048e+08,-80.3639
1.43114e+08,-81.2899
1.43181e+08,-80.4489
1.43248e+08,-81.2015
1.43314e+08,-79.6422
1.43381e+08,-80.5949
1.43448e+08,-80.507
1.43515e+08,-81.5887
1.43581e+08,-80.4161
1.43648e+08,-81.264
1.43715e+08,-79.8291
1.43781e+08,-81.2703
1.43848e+08,-79.978
1.43915e+08,-81.2401
1.43981e+08,-79.6706
1.44048e+08,-81.1449
1.44115e+08,-80.9801
1.44181e+08,-80.9444
1.44248e+08,-80.7799
1.44315e+08,-80.9504
1.44381e+08,-80.4101
1.44448e+08,-80.0399
1.44515e+08,-80.4956
1.44582e+08,-80.8782
1.44648e+08,-79.9657
1.44715e+08,-80.4507
1.44782e+08,-80.507
1.44848e+08,-80.81
1.44915e+08,-80.1193
1.44982e+08,-81.2139
1.45048e+08,-80.7119
1.45115e+08,-80.7872
1.45182e+08,-81.599
1.45248e+08,-80.7724
1.45315e+08,-79.1727
1.45382e+08,-81.3502
1.45448e+08,-80.492
1.45515e+08,-81.502
1.45582e+08,-81.7804
1.45649e+08,-81.3519
1.45715e+08,-80.3637
1.45782e+08,-80.95
1.45849e+08,-80.8897
1.45915e+08,-80.4651
1.45982e+08,-81.9539
1.46049e+08,-80.653
1.46115e+08,-80.5778
1.46182e+08,-79.3993
1.46249e+08,-79.866
1.46315e+08,-80.08
1.46382e+08,-80.2342
1.46449e+08,-80.9062
1.46516e+08,-81.4271
1.46582e+08,-80.7175
1.46649e+08,-80.4296
1.46716e+08,-80.6515
1.46782e+08,-81.3286
1.46849e+08,-80.6436
1.46916e+08,-79.5098
1.46982e+08,-80.2983
1.47049e+08,-80.4766
1.47116e+08,-81.2526
1.47182e+08,-80.8099
1.47249e+08,-80.5356
1.47316e+08,-80.2892
1.47382e+08,-81.0267
1.47449e+08,-80.6665
1.47516e+08,-80.1126
1.47583e+08,-79.7506
1.47649e+08,-81.1071
1.47716e+08,-80.709
1.47783e+08,-81.1856
1.47849e+08,-80.0749
1.47916e+08,-80.2716
1.47983e+08,-81.3417
1.48049e+08,-81.5131
1.48116e+08,-79.5819
1.48183e+08,-79.4347
1.48249e+08,-80.9846
1.48316e+08,-80.1131
1.48383e+08,-80.8392
1.48449e+08,-80.5671
1.48516e+08,-81.3897
1.48583e+08,-80.9821
1.4865e+08,-80.6574
1.48716e+08,-80.4274
1.48783e+08,-79.7632
1.4885e+08,-80.9093
1.48916e+08,-80.7449
1.48983e+08,-80.9154
1.4905e+08,-80.8342
1.49116e+08,-81.2193
1.49183e+08,-80.8542
1.4925e+08,-80.9346
1.49316e+08,-80.4062
1.49383e+08,-80.6862
1.4945e+08,-81.1622
1.49517e+08,-81.7237
1.49583e+08,-79.7418
1.4965e+08,-80.6124
1.49717e+08,-80.6529
1.49783e+08,-80.5842
1.4985e+08,-79.8514
1.49917e+08,-80.6548
1.49983e+08,-81.4309
1.5005e+08,-80.068
1.50117e+08,-81.0276
1.50183e+08,-81.0021
1.5025e+08,-80.8742
1.50317e+08,-81.0082
1.50383e+08,-80.7373
1.5045e+08,-79.822
1.50517e+08,-80.5821
1.50584e+08,-80.3206
1.5065e+08,-81.0236
1.50717e+08,-80.6796
1.50784e+08,-80.185
1.5085e+08,-78.9886
1.50917e+08,-81.8145
1.50984e+08,-81.476
1.5105e+08,-79.9524
1.51117e+08,-80.6492
1.51184e+08,-80.0883
1.5125e+08,-81.3654
1.51317e+08,-81.4209
1.51384e+08,-80.7194
1.5145e+08,-79.6085
1.51517e+08,-81.3895
1.51584e+08,-80.8396
1.51651e+08,-81.9312
1.51717e+08,-80.5697
1.51784e+08,-81.0724
1.51851e+08,-80.5145
1.51917e+08,-80.6913
1.51984e+08,-81.2674
1.52051e+08,-81.4492
1.52117e+08,-81.2297
1.52184e+08,-80.5255
1.52251e+08,-81.1666
1.52317e+08,-81.668
1.52384e+08,-80.6671
1.52451e+08,-81.0172
1.52518e+08,-81.0886
1.52584e+08,-81.9401
1.52651e+08,-81.2477
1.52718e+08,-80.7997
1.52784e+08,-80.4705
1.52851e+08,-80.9785
1.52918e+08,-80.3394
1.52984e+08,-80.7247
1.53051e+08,-80.745
1.53118e+08,-79.5717
1.53184e+08,-79.3793
1.53251e+08,-79.9264
1.53318e+08,-80.9893
1.53384e+08,-81.4429
1.53451e+08,-81.2749
1.53518e+08,-79.9181
1.53585e+08,-80.3709
1.53651e+08,-80.0282
1.53718e+08,-79.8131
1.53785e+08,-81.0431
1.53851e+08,-81.3497
1.53918e+08,-81.0961
1.53985e+08,-80.7762
1.54051e+08,-80.542
1.54118e+08,-80.3172
1.54185e+08,-81.4482
1.54251e+08,-79.9664
1.54318e+08,-81.5115
1.54385e+08,-81.2421
1.54451e+08,-80.9061
1.54518e+08,-82.4125
1.54585e+08,-82.0251
1.54652e+08,-80.3629
1.54718e+08,-80.7152
1.54785e+08,-79.7059
1.54852e+08,-80.9457
1.54918e+08,-80.7275
1.54985e+08,-80.0759
1.55052e+08,-81.8661
1.55118e+08,-81.1197
1.55185e+08,-81.4445
1.55252e+08,-80.3252
1.55318e+08,-81.5116
1.55385e+08,-80.8709
1.55452e+08,-81.0198
1.55519e+08,-81.8428
1.55585e+08,-81.2847
1.55652e+08,-81.3922
1.55719e+08,-81.5428
1.55785e+08,-82.1459
1.55852e+08,-81.6376
1.55919e+08,-81.6217
1.55985e+08,-81.7179
1.56052e+08,-80.9189
1.56119e+08,-82.1557
1.56185e+08,-80.6558
1.56252e+08,-81.5617
1.56319e+08,-81.1143
1.56385e+08,-81.0921
1.56452e+08,-81.931
1.56519e+08,-79.5856
1.56586e+08,-80.9898
1.56652e+08,-81.3847
1.56719e+08,-80.394
1.56786e+08,-81.3687
1.56852e+08,-82.0971
1.56919e+08,-81.3006
1.56986e+08,-81.4423
1.57052e+08,-81.4042
1.57119e+08,-81.3811
1.57186e+08,-82.2258
1.57252e+08,-81.5618
1.57319e+08,-81.47
1.57386e+08,-81.5265
1.57452e+08,-80.3519
1.57519e+08,-80.4316
1.57586e+08,-81.1303
1.57653e+08,-82.2471
1.57719e+08,-82.2964
1.57786e+08,-81.1215
1.57853e+08,-81.485
1.57919e+08,-81.5148
1.57986e+08,-81.3859
1.58053e+08,-81.1815
1.58119e+08,-81.17
1.58186e+08,-80.8393
1.58253e+08,-81.9615
1.58319e+08,-81.7511
1.58386e+08,-80.4621
1.58453e+08,-78.9514
1.5852e+08,-80.961
1.58586e+08,-80.508
1.58653e+08,-81.2988
1.5872e+08,-81.0384
1.58786e+08,-81.2533
1.58853e+08,-81.7745
1.5892e+08,-81.4467
1.58986e+08,-81.7971
1.59053e+08,-81.7378
1.5912e+08,-81.2582
1.59186e+08,-80.8742
1.59253e+08,-81.543
1.5932e+08,-80.5808
1.59386e+08,-82.4266
1.59453e+08,-81.0582
1.5952e+08,-80.0258
1.59587e+08,-82.1707
1.59653e+08,-81.2173
1.5972e+08,-82.2109
1.59787e+08,-80.8167
1.59853e+08,-81.0011
1.5992e+08,-80.4472
1.59987e+08,-81.178
1.60053e+08,-81.896
1.6012e+08,-80.7093
1.60187e+08,-81.5935
1.60253e+08,-82.0028
1.6032e+08,-81.3011
1.60387e+08,-80.5114
1.60453e+08,-82.4525
1.6052e+08,-80.8077
1.60587e+08,-81.633
1.60654e+08,-81.544
1.6072e+08,-81.3992
1.60787e+08,-81.8033
1.60854e+08,-83.043
1.6092e+08,-81.5229
1.60987e+08,-82.3429
1.61054e+08,-81.3404
1.6112e+08,-81.071
1.61187e+08,-82.1834
1.61254e+08,-81.4594
1.6132e+08,-81.406
1.61387e+08,-81.8582
1.61454e+08,-82.1525
1.61521e+08,-80.7686
1.61587e+08,-81.6798
1.61654e+08,-82.3253
1.61721e+08,-82.35
1.61787e+08,-81.3386
1.61854e+08,-81.9105
1.61921e+08,-81.4317
1.61987e+08,-82.0749
1.62054e+08,-81.6646
1.62121e+08,-80.3535
1.62187e+08,-82.0044
1.62254e+08,-81.5511
1.62321e+08,-81.4098
1.62387e+08,-81.5732
1.62454e+08,-81.7554
1.62521e+08,-81.3219
1.62588e+08,-80.8028
1.62654e+08,-81.7029
1.62721e+08,-79.3912
1.62788e+08,-81.8795
1.62854e+08,-81.3157
1.62921e+08,-80.3509
1.62988e+08,-81.1849
1.63054e+08,-79.1875
1.63121e+08,-82.2767
1.63188e+08,-81.7617
1.63254e+08,-82.3976
1.63321e+08,-80.3982
1.63388e+08,-80.8675
1.63454e+08,-82.3412
1.63521e+08,-81.1405
1.63588e+08,-81.0163
1.63655e+08,-81.3396
1.63721e+08,-81.1097
1.63788e+08,-81.9763
1.63855e+08,-80.4515
1.63921e+08,-81.7326
1.63988e+08,-82.8483
1.64055e+08,-81.5568
1.64121e+08,-82.3404
1.64188e+08,-80.8296
1.64255e+08,-81.8924
1.64321e+08,-81.2935
1.64388e+08,-83.0302
1.64455e+08,-81.6544
1.64522e+08,-82.6415
1.64588e+08,-81.6301
1.64655e+08,-82.2819
1.64722e+08,-82.6139
1.64788e+08,-80.7827
1.64855e+08,-82.0697
1.64922e+08,-82.8905
1.64988e+08,-81.6115
1.65055e+08,-82.4265
1.65122e+08,-81.3662
1.65188e+08,-81.7388
1.65255e+08,-82.4762
1.65322e+08,-81.5512
1.65388e+08,-81.8959
1.65455e+08,-81.053
1.65522e+08,-81.5574
1.65589e+08,-82.1627
1.65655e+08,-82.7603
1.65722e+08,-83.1765
1.65789e+08,-81.0251
1.65855e+08,-82.7632
1.65922e+08,-82.0699
1.65989e+08,-82.9005
1.66055e+08,-82.1468
1.66122e+08,-82.6995
1.66189e+08,-82.418
1.66255e+08,-82.3793
1.66322e+08,-81.5783
1.66389e+08,-82.472
1.66455e+08,-81.4394
1.66522e+08,-81.3256
1.66589e+08,-81.9633
1.66656e+08,-82.4572
1.66722e+08,-81.9704
1.66789e+08,-81.7899
1.66856e+08,-81.486
1.66922e+08,-83.0112
1.66989e+08,-83.0381
1.67056e+08,-82.5013
1.67122e+08,-82.2467
1.67189e+08,-82.0563
1.67256e+08,-82.8865
1.67322e+08,-82.0839
1.67389e+08,-81.8012
1.67456e+08,-81.8365
1.67523e+08,-83.3554
1.67589e+08,-82.8079
1.67656e+08,-82.4625
1.67723e+08,-82.5827
1.67789e+08,-82.2042
1.67856e+08,-82.9316
1.67923e+08,-82.886
1.67989e+08,-82.8094
1.68056e+08,-81.3404
1.68123e+08,-81.5378
1.68189e+08,-81.8749
1.68256e+08,-82.0974
1.68323e+08,-82.0641
1.68389e+08,-82.5257
1.68456e+08,-81.0124
1.68523e+08,-83.9417
1.6859e+08,-82.908
1.68656e+08,-83.099
1.68723e+08,-82.4888
1.6879e+08,-82.3012
1.68856e+08,-82.3768
1.68923e+08,-82.9643
1.6899e+08,-82.6385
1.69056e+08,-83.4489
1.69123e+08,-82.2987
1.6919e+08,-83.0307
1.69256e+08,-81.9595
1.69323e+08,-82.226
1.6939e+08,-82.4881
1.69456e+08,-82.385
1.69523e+08,-83.4262
1.6959e+08,-81.1464
1.69657e+08,-81.7922
1.69723e+08,-83.0956
1.6979e+08,-82.65
1.69857e+08,-82.4203
1.69923e+08,-83.0069
1.6999e+08,-81.6051
1.70057e+08,-82.8117
1.70123e+08,-83.5861
1.7019e+08,-83.2739
1.70257e+08,-82.864
1.70323e+08,-83.2119
1.7039e+08,-80.563
1.70457e+08,-82.4415
1.70524e+08,-82.4153
1.7059e+08,-83.1261
1.70657e+08,-81.7214
1.70724e+08,-83.2652
1.7079e+08,-83.2365
1.70857e+08,-82.6992
1.70924e+08,-81.0813
1.7099e+08,-82.7336
1.71057e+08,-82.0805
1.71124e+08,-83.0805
1.7119e+08,-82.3169
1.71257e+08,-82.3885
1.71324e+08,-83.3458
1.7139e+08,-81.5133
1.71457e+08,-82.7923
1.71524e+08,-83.2498
1.71591e+08,-82.3732
1.71657e+08,-81.5075
1.71724e+08,-81.8324
1.71791e+08,-82.3082
1.71857e+08,-84.0189
1.71924e+08,-83.1625
1.71991e+08,-82.4987
1.72057e+08,-82.9
1.72124e+08,-83.0178
1.72191e+08,-84.0835
1.72257e+08,-81.9613
1.72324e+08,-83.0072
1.72391e+08,-82.0993
1.72457e+08,-81.4134
1.72524e+08,-83.4276
1.72591e+08,-81.4506
1.72658e+08,-82.425
1.72724e+08,-82.5062
1.72791e+08,-83.4064
1.72858e+08,-82.4535
1.72924e+08,-83.3815
1.72991e+08,-82.5475
1.73058e+08,-83.4573
1.73124e+08,-83.5978
1.73191e+08,-83.3604
1.73258e+08,-83.5821
1.73324e+08,-81.9533
1.73391e+08,-83.1283
1.73458e+08,-81.7201
1.73525e+08,-82.9845
1.73591e+08,-81.7945
1.73658e+08,-83.4673
1.73725e+08,-83.2004
1.73791e+08,-83.1067
1.73858e+08,-83.7008
1.73925e+08,-82.1706
1.73991e+08,-83.2172
1.74058e+08,-82.1074
1.74125e+08,-82.6835
1.74191e+08,-83.7132
1.74258e+08,-83.5844
1.74325e+08,-83.3471
1.74391e+08,-83.7167
1.74458e+08,-82.2461
1.74525e+08,-82.6629
1.74592e+08,-83.7152
1.74658e+08,-82.6004
1.74725e+08,-83.2305
1.74792e+08,-82.4907
1.74858e+08,-83.1779
1.74925e+08,-81.9494
1.74992e+08,-82.9917
1.75058e+08,-83.0879
1.75125e+08,-82.7425
1.75192e+08,-82.4274
1.75258e+08,-82.831
1.75325e+08,-82.7099
1.75392e+08,-84.0129
1.75458e+08,-82.4555
1.75525e+08,-82.7975
1.75592e+08,-83.177
1.75659e+08,-83.3324
1.75725e+08,-82.0826
1.75792e+08,-83.5975
1.75859e+08,-83.4605
1.75925e+08,-83.9781
1.75992e+08,-82.1676
1.76059e+08,-82.043
1.76125e+08,-83.2012
1.76192e+08,-83.7932
1.76259e+08,-82.5796
1.76325e+08,-83.9443
1.76392e+08,-81.9791
1.76459e+08,-82.8942
1.76526e+08,-83.4942
1.76592e+08,-83.3683
1.76659e+08,-83.5224
1.76726e+08,-83.5463
1.76792e+08,-82.7344
1.76859e+08,-82.2281
1.76926e+08,-83.4718
1.76992e+08,-83.3749
1.77059e+08,-82.8085
1.77126e+08,-83.1422
1.77192e+08,-82.5726
1.77259e+08,-83.2492
1.77326e+08,-83.1407
1.77392e+08,-83.0843
1.77459e+08,-81.9956
1.77526e+08,-82.6404
1.77593e+08,-83.6184
1.77659e+08,-82.8625
1.77726e+08,-83.3216
1.77793e+08,-83.2499
1.77859e+08,-84.0047
1.77926e+08,-82.3598
1.77993e+08,-83.9421
1.78059e+08,-82.4145
1.78126e+08,-83.4435
1.78193e+08,-83.4236
1.78259e+08,-83.2938
1.78326e+08,-83.5197
1.78393e+08,-82.8933
1.78459e+08,-83.3113
1.78526e+08,-83.4308
1.78593e+08,-83.7903
1.7866e+08,-82.3415
1.78726e+08,-82.9821
1.78793e+08,-83.3471
1.7886e+08,-84.6672
1.78926e+08,-84.0589
1.78993e+08,-83.4225
1.7906e+08,-82.3727
1.79126e+08,-82.8019
1.79193e+08,-83.2963
1.7926e+08,-83.907
1.79326e+08,-83.0513
1.79393e+08,-82.5169
1.7946e+08,-84.2174
1.79527e+08,-81.834
1.79593e+08,-82.2581
1.7966e+08,-84.2159
1.79727e+08,-83.6916
1.79793e+08,-83.7311
1.7986e+08,-83.145
1.79927e+08,-83.6206
1.79993e+08,-83.5169
1.8006e+08,-83.0643
1.80127e+08,-84.0602
1.80193e+08,-82.4848
1.8026e+08,-83.2172
1.80327e+08,-84.2533
1.80393e+08,-83.8172
1.8046e+08,-82.8823
1.80527e+08,-83.7909
1.80594e+08,-84.4287
1.8066e+08,-83.41
1.80727e+08,-83.1854
1.80794e+08,-83.1896
1.8086e+08,-81.6488
1.80927e+08,-83.0347
1.80994e+08,-83.2971
1.8106e+08,-83.33
1.81127e+08,-83.3391
1.81194e+08,-84.4677
1.8126e+08,-82.8582
1.81327e+08,-82.7764
1.81394e+08,-84.3793
1.8146e+08,-84.3089
1.81527e+08,-84.1544
1.81594e+08,-84.0129
1.81661e+08,-83.2398
1.81727e+08,-84.3877
1.81794e+08,-83.1071
1.81861e+08,-83.3817
1.81927e+08,-84.0467
1.81994e+08,-83.1853
1.82061e+08,-84.0822
1.82127e+08,-83.7437
1.82194e+08,-83.7031
1.82261e+08,-84.6472
1.82327e+08,-83.3062
1.82394e+08,-82.3263
1.82461e+08,-83.0835
1.82528e+08,-84.1259
1.82594e+08,-83.0037
1.82661e+08,-83.3372
1.82728e+08,-83.9322
1.82794e+08,-83.7387
1.82861e+08,-84.1181
1.82928e+08,-83.5488
1.82994e+08,-84.1119
1.83061e+08,-83.1397
1.83128e+08,-84.1109
1.83194e+08,-83.4491
1.83261e+08,-83.3615
1.83328e+08,-83.3035
1.83394e+08,-84.7453
1.83461e+08,-83.5793
1.83528e+08,-83.7482
1.83595e+08,-84.3036
1.83661e+08,-83.3489
1.83728e+08,-84.5862
1.83795e+08,-83.6911
1.83861e+08,-84.195
1.83928e+08,-82.6854
1.83995e+08,-84.1096
1.84061e+08,-84.3918
1.84128e+08,-83.7387
1.84195e+08,-84.4125
1.84261e+08,-84.2238
1.84328e+08,-83.1867
1.84395e+08,-83.2383
1.84461e+08,-83.4981
1.84528e+08,-84.0742
1.84595e+08,-84.3716
1.84662e+08,-83.4478
1.84728e+08,-83.9326
1.84795e+08,-83.9785
1.84862e+08,-84.7005
1.84928e+08,-84.0398
1.84995e+08,-83.7776
1.85062e+08,-84.5154
1.85128e+08,-83.1665
1.85195e+08,-84.4213
1.85262e+08,-83.9235
1.85328e+08,-84.3932
1.85395e+08,-84.242
1.85462e+08,-83.764
1.85529e+08,-83.3397
1.85595e+08,-83.5337
1.85662e+08,-84.5495
1.85729e+08,-83.4886
1.85795e+08,-84.0281
1.85862e+08,-83.9035
1.85929e+08,-84.5531
1.85995e+08,-84.6807
1.86062e+08,-83.1548
1.86129e+08,-83.9996
1.86195e+08,-84.713
1.86262e+08,-84.3374
1.86329e+08,-83.8183
1.86395e+08,-84.2291
1.86462e+08,-83.3039
1.86529e+08,-84.3679
1.86596e+08,-83.0665
1.86662e+08,-84.0739
1.86729e+08,-84.5637
1.86796e+08,-83.5247
1.86862e+08,-84.5239
1.86929e+08,-83.5385
1.86996e+08,-84.7352
1.87062e+08,-83.7117
1.87129e+08,-83.9662
1.87196e+08,-83.1369
1.87262e+08,-84.1907
1.87329e+08,-83.089
1.87396e+08,-84.7153
1.87462e+08,-84.1151
1.87529e+08,-84.2206
1.87596e+08,-83.8803
1.87663e+08,-83.7475
1.87729e+08,-83.6665
1.87796e+08,-84.3964
1.87863e+08,-84.0648
1.87929e+08,-84.0906
1.87996e+08,-84.0325
1.88063e+08,-84.5592
1.88129e+08,-83.9484
1.88196e+08,-84.0833
1.88263e+08,-83.5928
1.88329e+08,-85.1363
1.88396e+08,-83.9309
1.88463e+08,-84.1499
1.8853e+08,-84.2827
1.88596e+08,-84.9524
1.88663e+08,-83.4032
1.8873e+08,-84.1004
1.88796e+08,-83.2148
1.88863e+08,-84.184
1.8893e+08,-83.7531
1.88996e+08,-84.3277
1.89063e+08,-83.9569
1.8913e+08,-82.9963
1.89196e+08,-83.6256
1.89263e+08,-84.3474
1.8933e+08,-83.2393
1.89396e+08,-84.244
1.89463e+08,-83.059
1.8953e+08,-82.9102
1.89597e+08,-82.3839
1.89663e+08,-83.875
1.8973e+08,-82.9779
1.89797e+08,-83.5614
1.89863e+08,-84.2566
1.8993e+08,-84.1495
1.89997e+08,-84.3473
1.90063e+08,-82.897
1.9013e+08,-83.0867
1.90197e+08,-83.2138
1.90263e+08,-85.2352
1.9033e+08,-84.1306
1.90397e+08,-83.3176
1.90463e+08,-82.9956
1.9053e+08,-83.4086
1.90597e+08,-84.2243
1.90664e+08,-82.6171
1.9073e+08,-84.2287
1.90797e+08,-84.0743
1.90864e+08,-84.5216
1.9093e+08,-84.8024
1.90997e+08,-83.9839
1.91064e+08,-84.0566
1.9113e+08,-84.5196
1.91197e+08,-84.8635
1.91264e+08,-83.3401
1.9133e+08,-84.1868
1.91397e+08,-83.1953
1.91464e+08,-83.7139
1.91531e+08,-83.9903
1.91597e+08,-84.1635
1.91664e+08,-82.486
1.91731e+08,-84.8021
1.91797e+08,-84.3121
1.91864e+08,-83.1255
1.91931e+08,-83.2246
1.91997e+08,-84.1234
1.92064e+08,-85.288
1.92131e+08,-83.7291
1.92197e+08,-83.9541
1.92264e+08,-84.1108
1.92331e+08,-85.0767
1.92397e+08,-84.6721
1.92464e+08,-85.058
1.92531e+08,-83.9412
1.92598e+08,-84.0346
1.92664e+08,-83.2574
1.92731e+08,-84.0022
1.92798e+08,-83.8208
1.92864e+08,-83.9025
1.92931e+08,-84.7304
1.92998e+08,-83.7937
1.93064e+08,-84.1631
1.93131e+08,-84.0832
1.93198e+08,-83.1675
1.93264e+08,-84.0296
1.93331e+08,-84.1664
1.93398e+08,-83.2184
1.93464e+08,-84.6754
1.93531e+08,-84.8806
1.93598e+08,-84.402
1.93665e+08,-84.5672
1.93731e+08,-83.1162
1.93798e+08,-83.0592
1.93865e+08,-83.2484
1.93931e+08,-84.3015
1.93998e+08,-83.1331
1.94065e+08,-83.619
1.94131e+08,-82.6714
1.94198e+08,-83.5681
1.94265e+08,-83.4589
1.94331e+08,-84.3583
1.94398e+08,-84.7137
1.94465e+08,-83.8134
1.94532e+08,-83.7618
1.94598e+08,-84.2641
1.94665e+08,-84.9651
1.94732e+08,-84.3226
1.94798e+08,-84.097
1.94865e+08,-84.5082
1.94932e+08,-83.0695
1.94998e+08,-85.1338
1.95065e+08,-84.3364
1.95132e+08,-84.4344
1.95198e+08,-84.8855
1.95265e+08,-84.472
1.95332e+08,-83.161
1.95398e+08,-83.899
1.95465e+08,-84.8719
1.95532e+08,-84.6825
1.95599e+08,-84.4419
1.95665e+08,-84.3591
1.95732e+08,-83.8913
1.95799e+08,-84.7145
1.95865e+08,-85.3263
1.95932e+08,-83.7666
1.95999e+08,-83.4853
1.96065e+08,-83.7605
1.96132e+08,-84.8727
1.96199e+08,-83.7138
1.96265e+08,-82.4646
1.96332e+08,-83.592
1.96399e+08,-84.0113
1.96465e+08,-84.375
1.96532e+08,-83.5905
1.96599e+08,-84.2653
1.96666e+08,-84.5895
1.96732e+08,-83.7402
1.96799e+08,-84.2153
1.96866e+08,-84.4269
1.96932e+08,-85.0658
1.96999e+08,-84.6207
1.97066e+08,-84.5139
1.97132e+08,-84.6818
1.97199e+08,-84.4519
1.97266e+08,-84.7835
1.97332e+08,-84.9979
1.97399e+08,-84.1786
1.97466e+08,-83.4792
1.97533e+08,-83.7801
1.97599e+08,-83.9761
1.97666e+08,-84.6552
1.97733e+08,-83.4575
1.97799e+08,-84.6091
1.97866e+08,-85.1781
1.97933e+08,-83.5103
1.97999e+08,-85.0164
1.98066e+08,-83.3912
1.98133e+08,-84.4948
1.98199e+08,-84.2641
1.98266e+08,-84.4495
1.98333e+08,-84.3173
1.98399e+08,-83.8972
1.98466e+08,-83.0759
1.98533e+08,-83.9901
1.986e+08,-85.0061
1.98666e+08,-83.7207
1.98733e+08,-84.5181
1.988e+08,-84.1842
1.98866e+08,-84.8812
1.98933e+08,-84.7024
1.99e+08,-85.1937
1.99066e+08,-84.5435
1.99133e+08,-84.8155
1.992e+08,-84.459
1.99266e+08,-84.1593
1.99333e+08,-84.2556
1.994e+08,-82.704
1.99466e+08,-84.5517
1.99533e+08,-84.3138
1.996e+08,-85.1411
1.99667e+08,-85.0988
1.99733e+08,-84.0971
1.998e+08,-84.4159
1.99867e+08,-83.4021
1.99933e+08,-84.4314
2e+08,-84.1484
