FileType,0
Number of Points,3000
Sweep Time,3e+08
Start Frequency,0
Stop Frequency,1.3e+08
Average Count,1
Average Type,0
RBW,10000
RBW Filter,0
RBW Filter BW,0
VBW,10000
Sweep Type,0
X Axis Scale,1
PreAmp State,0
Trigger Source,0
Trigger Level,-25
Trigger Edge,0
Trigger Delay Switch,0
Trigger Delay,1
Attenuation,20
Ref Level Offset,0
External Gain,0
Trace Type,0
Detector,0
Trace Math,5
Trace Math Oper1,4
Trace Math Oper2,5
Trace Math Offset,0
Trace Name,0
Full Span,1.3e+08
Y Axis Unit,0
DATA,
0,-15.5428
43347.8,-65.7614
86695.6,-39.282
130043,-36.2344
173391,-47.6107
216739,-48.1567
260087,-48.5268
303434,-50.2603
346782,-50.506
390130,-53.5279
433478,-56.3151
476826,-59.9354
520173,-65.8519
563521,-66.0852
606869,-68.5277
650217,-69.864
693565,-71.6768
736912,-72.3683
780260,-73.4291
823608,-72.4147
866956,-71.9376
910303,-72.8452
953651,-71.1155
996999,-70.5322
1.04035e+06,-73.64
1.08369e+06,-72.9421
1.12704e+06,-73.479
1.17039e+06,-71.7595
1.21374e+06,-70.4914
1.25709e+06,-72.112
1.30043e+06,-70.2868
1.34378e+06,-73.2933
1.38713e+06,-68.1844
1.43048e+06,-69.8569
1.47382e+06,-63.9056
1.51717e+06,-63.9755
1.56052e+06,-59.5894
1.60387e+06,-58.8571
1.64722e+06,-59.6472
1.69056e+06,-67.2552
1.73391e+06,-68.667
1.77726e+06,-69.6459
1.82061e+06,-71.3488
1.86395e+06,-72.4491
1.9073e+06,-71.3891
1.95065e+06,-70.7093
1.994e+06,-71.4505
2.03735e+06,-71.836
2.08069e+06,-71.7489
2.12404e+06,-72.9552
2.16739e+06,-70.6515
2.21074e+06,-69.425
2.25408e+06,-67.2126
2.29743e+06,-67.4338
2.34078e+06,-68.365
2.38413e+06,-70.5941
2.42748e+06,-72.1021
2.47082e+06,-71.9013
2.51417e+06,-71.7267
2.55752e+06,-71.4922
2.60087e+06,-72.1698
2.64421e+06,-71.9675
2.68756e+06,-71.1821
2.73091e+06,-71.4919
2.77426e+06,-69.9893
2.81761e+06,-70.8047
2.86095e+06,-71.8569
2.9043e+06,-71.408
2.94765e+06,-69.989
2.991e+06,-71.3663
3.03434e+06,-70.0066
3.07769e+06,-70.981
3.12104e+06,-69.659
3.16439e+06,-69.5911
3.20774e+06,-69.1947
3.25108e+06,-70.2764
3.29443e+06,-69.6079
3.33778e+06,-68.6017
3.38113e+06,-70.0239
3.42447e+06,-69.49
3.46782e+06,-70.2033
3.51117e+06,-70.3127
3.55452e+06,-70.0059
3.59787e+06,-69.0184
3.64121e+06,-70.077
3.68456e+06,-69.6583
3.72791e+06,-69.7956
3.77126e+06,-69.7094
3.8146e+06,-69.8824
3.85795e+06,-68.526
3.9013e+06,-70.2027
3.94465e+06,-69.8474
3.988e+06,-69.4892
4.03134e+06,-67.9056
4.07469e+06,-69.8646
4.11804e+06,-69.0653
4.16139e+06,-69.882
4.20473e+06,-68.3333
4.24808e+06,-69.4389
4.29143e+06,-69.2256
4.33478e+06,-69.6916
4.37813e+06,-69.4388
4.42147e+06,-69.3232
4.46482e+06,-69.4719
4.50817e+06,-67.685
4.55152e+06,-69.7772
4.59486e+06,-70.3113
4.63821e+06,-67.877
4.68156e+06,-68.6757
4.72491e+06,-69.5722
4.76826e+06,-68.9381
4.8116e+06,-68.7673
4.85495e+06,-69.5216
4.8983e+06,-69.708
4.94165e+06,-67.6845
4.98499e+06,-68.5245
5.02834e+06,-69.725
5.07169e+06,-69.5046
5.11504e+06,-67.1833
5.15839e+06,-69.0163
5.20173e+06,-67.6841
5.24508e+06,-69.4709
5.28843e+06,-69.3879
5.33178e+06,-67.9178
5.37513e+06,-68.906
5.41847e+06,-68.4643
5.46182e+06,-68.494
5.50517e+06,-68.3316
5.54852e+06,-68.6746
5.59186e+06,-66.98
5.63521e+06,-67.6429
5.67856e+06,-67.5756
5.72191e+06,-67.6293
5.76526e+06,-67.7242
5.8086e+06,-67.7242
5.85195e+06,-66.8925
5.8953e+06,-68.5683
5.93865e+06,-68.1287
5.98199e+06,-67.2335
6.02534e+06,-68.4191
6.06869e+06,-68.0432
6.11204e+06,-67.7648
6.15539e+06,-67.4288
6.19873e+06,-68.3894
6.24208e+06,-67.7372
6.28543e+06,-68.8116
6.32878e+06,-68.4483
6.37212e+06,-66.2014
6.41547e+06,-66.6475
6.45882e+06,-66.7078
6.50217e+06,-66.7443
6.54552e+06,-67.8192
6.58886e+06,-67.3104
6.63221e+06,-68.4628
6.67556e+06,-67.0541
6.71891e+06,-67.2843
6.76225e+06,-66.9535
6.8056e+06,-66.6349
6.84895e+06,-67.2971
6.8923e+06,-67.0791
6.93565e+06,-67.2194
6.97899e+06,-67.2839
7.02234e+06,-66.8539
7.06569e+06,-67.86
7.10904e+06,-65.7979
7.15238e+06,-66.5387
7.19573e+06,-64.7493
7.23908e+06,-67.0155
7.28243e+06,-67.2061
7.32578e+06,-64.1234
7.36912e+06,-65.754
7.41247e+06,-66.0638
7.45582e+06,-66.5503
7.49917e+06,-66.5264
7.54251e+06,-66.3267
7.58586e+06,-66.6822
7.62921e+06,-64.8755
7.67256e+06,-66.8284
7.71591e+06,-66.4551
7.75925e+06,-64.2499
7.8026e+06,-65.8299
7.84595e+06,-65.8518
7.8893e+06,-65.4332
7.93264e+06,-65.9179
7.97599e+06,-65.4645
8.01934e+06,-65.1648
8.06269e+06,-65.8735
8.10604e+06,-65.8295
8.14938e+06,-65.3598
8.19273e+06,-64.6709
8.23608e+06,-66.8771
8.27943e+06,-66.1192
8.32277e+06,-65.2871
8.36612e+06,-65.5911
8.40947e+06,-65.4116
8.45282e+06,-65.8071
8.49617e+06,-65.4639
8.53951e+06,-66.5251
8.58286e+06,-65.5483
8.62621e+06,-66.2559
8.66956e+06,-66.096
8.7129e+06,-65.9724
8.75625e+06,-65.9947
8.7996e+06,-65.6656
8.84295e+06,-65.4319
8.8863e+06,-66.6082
8.92964e+06,-65.7628
8.97299e+06,-66.0168
9.01634e+06,-67.0763
9.05969e+06,-66.7166
9.10303e+06,-65.9831
9.14638e+06,-66.5959
9.18973e+06,-65.6543
9.23308e+06,-66.1406
9.27643e+06,-66.6679
9.31977e+06,-66.0613
9.36312e+06,-66.278
9.40647e+06,-65.2037
9.44982e+06,-65.5684
9.49316e+06,-66.2547
9.53651e+06,-65.6217
9.57986e+06,-65.1222
9.62321e+06,-66.3822
9.66656e+06,-66.0159
9.7099e+06,-64.6785
9.75325e+06,-66.4761
9.7966e+06,-64.3577
9.83995e+06,-65.5679
9.88329e+06,-65.3888
9.92664e+06,-66.2312
9.96999e+06,-66.2082
1.00133e+07,-65.4826
1.00567e+07,-65.7065
1.01e+07,-65.9809
1.01434e+07,-65.3664
1.01867e+07,-65.7271
1.02301e+07,-65.5976
1.02734e+07,-66.0467
1.03168e+07,-65.629
1.03601e+07,-66.1365
1.04035e+07,-66.3316
1.04468e+07,-66.0453
1.04902e+07,-65.8009
1.05335e+07,-64.9867
1.05769e+07,-65.4571
1.06202e+07,-65.9879
1.06636e+07,-64.779
1.07069e+07,-65.9649
1.07503e+07,-65.6578
1.07936e+07,-66.5285
1.08369e+07,-64.8263
1.08803e+07,-66.2699
1.09236e+07,-66.2811
1.0967e+07,-65.1746
1.10103e+07,-66.3969
1.10537e+07,-65.0626
1.1097e+07,-65.4319
1.11404e+07,-66.1076
1.11837e+07,-66.1413
1.12271e+07,-65.7297
1.12704e+07,-66.3247
1.13138e+07,-65.8603
1.13571e+07,-64.1541
1.14005e+07,-65.8927
1.14438e+07,-65.0998
1.14872e+07,-64.9791
1.15305e+07,-65.5234
1.15739e+07,-65.0685
1.16172e+07,-64.2339
1.16606e+07,-64.9578
1.17039e+07,-65.9681
1.17472e+07,-64.4739
1.17906e+07,-65.2911
1.18339e+07,-65.9783
1.18773e+07,-64.5484
1.19206e+07,-64.7884
1.1964e+07,-64.8373
1.20073e+07,-65.417
1.20507e+07,-65.5982
1.2094e+07,-65.636
1.21374e+07,-64.4617
1.21807e+07,-65.4099
1.22241e+07,-64.6066
1.22674e+07,-64.7485
1.23108e+07,-65.323
1.23541e+07,-64.4827
1.23975e+07,-64.8111
1.24408e+07,-63.5598
1.24842e+07,-64.8454
1.25275e+07,-65.0564
1.25709e+07,-65.1578
1.26142e+07,-64.4813
1.26576e+07,-64.9847
1.27009e+07,-64.7061
1.27442e+07,-65.5064
1.27876e+07,-65.5438
1.28309e+07,-65.0845
1.28743e+07,-64.0143
1.29176e+07,-64.7278
1.2961e+07,-64.136
1.30043e+07,-64.608
1.30477e+07,-64.1623
1.3091e+07,-64.8131
1.31344e+07,-63.3828
1.31777e+07,-64.7264
1.32211e+07,-65.4601
1.32644e+07,-63.7834
1.33078e+07,-64.6744
1.33511e+07,-63.8862
1.33945e+07,-64.2088
1.34378e+07,-64.2572
1.34812e+07,-63.9428
1.35245e+07,-56.1091
1.35679e+07,-63.2781
1.36112e+07,-63.3313
1.36546e+07,-64.0683
1.36979e+07,-64.068
1.37412e+07,-64.775
1.37846e+07,-64.5756
1.38279e+07,-63.6782
1.38713e+07,-62.655
1.39146e+07,-63.3005
1.3958e+07,-64.4851
1.40013e+07,-64.077
1.40447e+07,-63.2949
1.4088e+07,-63.0317
1.41314e+07,-63.15
1.41747e+07,-61.9394
1.42181e+07,-63.965
1.42614e+07,-62.9838
1.43048e+07,-64.4944
1.43481e+07,-64.3889
1.43915e+07,-64.6005
1.44348e+07,-63.1627
1.44782e+07,-63.7768
1.45215e+07,-64.5941
1.45649e+07,-63.5433
1.46082e+07,-64.5937
1.46516e+07,-63.8428
1.46949e+07,-64.5763
1.47382e+07,-64.0412
1.47816e+07,-64.5085
1.48249e+07,-62.1461
1.48683e+07,-63.7747
1.49116e+07,-64.7859
1.4955e+07,-64.3088
1.49983e+07,-65.3391
1.50417e+07,-65.0428
1.5085e+07,-63.3039
1.51284e+07,-64.7617
1.51717e+07,-65.2101
1.52151e+07,-63.5198
1.52584e+07,-63.9019
1.53018e+07,-65.2275
1.53451e+07,-63.8806
1.53885e+07,-63.7667
1.54318e+07,-63.787
1.54752e+07,-64.5496
1.55185e+07,-63.9947
1.55619e+07,-64.6168
1.56052e+07,-64.1163
1.56485e+07,-64.4537
1.56919e+07,-65.2924
1.57352e+07,-64.5257
1.57786e+07,-64.4808
1.58219e+07,-65.2369
1.58653e+07,-64.4581
1.59086e+07,-64.0349
1.5952e+07,-64.2057
1.59953e+07,-64.0027
1.60387e+07,-64.3358
1.6082e+07,-63.9444
1.61254e+07,-65.2657
1.61687e+07,-65.7806
1.62121e+07,-64.6985
1.62554e+07,-63.9121
1.62988e+07,-65.0182
1.63421e+07,-65.1073
1.63855e+07,-64.7664
1.64288e+07,-64.5725
1.64722e+07,-63.9318
1.65155e+07,-65.436
1.65589e+07,-64.4266
1.66022e+07,-64.213
1.66455e+07,-65.5607
1.66889e+07,-64.3432
1.67322e+07,-64.554
1.67756e+07,-64.5876
1.68189e+07,-65.4781
1.68623e+07,-64.8681
1.69056e+07,-64.7349
1.6949e+07,-65.415
1.69923e+07,-63.9868
1.70357e+07,-63.401
1.7079e+07,-64.4404
1.71224e+07,-64.2264
1.71657e+07,-64.3187
1.72091e+07,-65.0132
1.72524e+07,-65.3392
1.72958e+07,-65.3698
1.73391e+07,-64.9948
1.73825e+07,-65.6264
1.74258e+07,-64.4608
1.74692e+07,-65.1252
1.75125e+07,-64.427
1.75559e+07,-64.2024
1.75992e+07,-63.8632
1.76425e+07,-63.915
1.76859e+07,-64.987
1.77292e+07,-64.9219
1.77726e+07,-64.4589
1.78159e+07,-62.455
1.78593e+07,-63.6159
1.79026e+07,-64.7524
1.7946e+07,-64.4524
1.79893e+07,-63.6709
1.80327e+07,-64.5077
1.8076e+07,-64.677
1.81194e+07,-63.8085
1.81627e+07,-64.8494
1.82061e+07,-64.1022
1.82494e+07,-63.2819
1.82928e+07,-63.4386
1.83361e+07,-63.4087
1.83795e+07,-62.6621
1.84228e+07,-62.8866
1.84662e+07,-64.2029
1.85095e+07,-63.261
1.85529e+07,-63.6476
1.85962e+07,-63.8008
1.86395e+07,-64.4042
1.86829e+07,-63.79
1.87262e+07,-61.8567
1.87696e+07,-63.2839
1.88129e+07,-63.4804
1.88563e+07,-64.326
1.88996e+07,-63.4849
1.8943e+07,-64.6666
1.89863e+07,-62.8141
1.90297e+07,-64.8622
1.9073e+07,-63.7007
1.91164e+07,-61.867
1.91597e+07,-62.4876
1.92031e+07,-62.6306
1.92464e+07,-63.9693
1.92898e+07,-62.3025
1.93331e+07,-62.7755
1.93765e+07,-62.5488
1.94198e+07,-64.2085
1.94632e+07,-63.5118
1.95065e+07,-63.164
1.95498e+07,-63.6828
1.95932e+07,-63.703
1.96365e+07,-63.5559
1.96799e+07,-63.5557
1.97232e+07,-64.0354
1.97666e+07,-64.5095
1.98099e+07,-62.8559
1.98533e+07,-63.1717
1.98966e+07,-64.5763
1.994e+07,-63.4247
1.99833e+07,-63.7162
2.00267e+07,-62.3815
2.007e+07,-64.2704
2.01134e+07,-62.744
2.01567e+07,-62.4781
2.02001e+07,-63.7719
2.02434e+07,-64.3299
2.02868e+07,-61.6853
2.03301e+07,-63.4828
2.03735e+07,-64.1771
2.04168e+07,-64.2148
2.04602e+07,-63.4228
2.05035e+07,-63.6837
2.05468e+07,-63.169
2.05902e+07,-63.373
2.06335e+07,-64.6416
2.06769e+07,-63.8582
2.07202e+07,-63.5314
2.07636e+07,-63.7493
2.08069e+07,-63.4811
2.08503e+07,-64.1916
2.08936e+07,-63.8782
2.0937e+07,-63.3129
2.09803e+07,-64.1318
2.10237e+07,-63.1433
2.1067e+07,-63.9194
2.11104e+07,-63.9876
2.11537e+07,-64.0351
2.11971e+07,-63.9242
2.12404e+07,-64.5488
2.12838e+07,-64.1738
2.13271e+07,-64.2877
2.13705e+07,-63.061
2.14138e+07,-64.8054
2.14572e+07,-63.5237
2.15005e+07,-63.9231
2.15438e+07,-64.5816
2.15872e+07,-63.4385
2.16305e+07,-63.886
2.16739e+07,-63.1697
2.17172e+07,-63.6947
2.17606e+07,-62.6065
2.18039e+07,-63.4179
2.18473e+07,-64.5635
2.18906e+07,-62.2442
2.1934e+07,-64.2691
2.19773e+07,-63.6276
2.20207e+07,-63.1206
2.2064e+07,-63.9001
2.21074e+07,-63.6933
2.21507e+07,-63.8633
2.21941e+07,-63.382
2.22374e+07,-63.7852
2.22808e+07,-64.4498
2.23241e+07,-63.6721
2.23675e+07,-63.6923
2.24108e+07,-64.0041
2.24542e+07,-64.4548
2.24975e+07,-64.0197
2.25408e+07,-64.5385
2.25842e+07,-65.0126
2.26275e+07,-61.4176
2.26709e+07,-63.8979
2.27142e+07,-63.0561
2.27576e+07,-64.1469
2.28009e+07,-63.6094
2.28443e+07,-63.7727
2.28876e+07,-64.6334
2.2931e+07,-64.4419
2.29743e+07,-64.9579
2.30177e+07,-64.1084
2.3061e+07,-62.1497
2.31044e+07,-63.8964
2.31477e+07,-64.0226
2.31911e+07,-64.0917
2.32344e+07,-64.1452
2.32778e+07,-63.901
2.33211e+07,-64.933
2.33645e+07,-63.7605
2.34078e+07,-64.2475
2.34512e+07,-63.8015
2.34945e+07,-64.2417
2.35378e+07,-63.6372
2.35812e+07,-64.5969
2.36245e+07,-64.1277
2.36679e+07,-63.2059
2.37112e+07,-62.2853
2.37546e+07,-63.9992
2.37979e+07,-63.8886
2.38413e+07,-63.3367
2.38846e+07,-64.6927
2.3928e+07,-63.9617
2.39713e+07,-64.8369
2.40147e+07,-63.7995
2.4058e+07,-62.6888
2.41014e+07,-63.8615
2.41447e+07,-62.8076
2.41881e+07,-63.1223
2.42314e+07,-63.9342
2.42748e+07,-64.0027
2.43181e+07,-64.5603
2.43615e+07,-63.0455
2.44048e+07,-63.184
2.44481e+07,-64.1301
2.44915e+07,-63.4182
2.45348e+07,-63.1259
2.45782e+07,-63.0257
2.46215e+07,-63.1495
2.46649e+07,-64.9518
2.47082e+07,-63.5874
2.47516e+07,-62.7502
2.47949e+07,-64.0061
2.48383e+07,-63.5617
2.48816e+07,-62.704
2.4925e+07,-63.4514
2.49683e+07,-62.3069
2.50117e+07,-61.9775
2.5055e+07,-63.4112
2.50984e+07,-62.9017
2.51417e+07,-63.0284
2.51851e+07,-63.2879
2.52284e+07,-63.6159
2.52718e+07,-61.0955
2.53151e+07,-62.5398
2.53585e+07,-63.946
2.54018e+07,-62.643
2.54451e+07,-62.3095
2.54885e+07,-62.877
2.55318e+07,-62.8396
2.55752e+07,-62.1878
2.56185e+07,-62.6968
2.56619e+07,-63.0266
2.57052e+07,-63.1312
2.57486e+07,-63.4484
2.57919e+07,-62.4224
2.58353e+07,-63.4084
2.58786e+07,-62.8523
2.5922e+07,-61.7915
2.59653e+07,-62.4439
2.60087e+07,-62.6092
2.6052e+07,-62.2899
2.60954e+07,-62.6406
2.61387e+07,-61.6683
2.61821e+07,-63.0389
2.62254e+07,-62.541
2.62688e+07,-63.3182
2.63121e+07,-62.7446
2.63555e+07,-62.9346
2.63988e+07,-62.7123
2.64421e+07,-63.426
2.64855e+07,-62.7854
2.65288e+07,-62.5533
2.65722e+07,-63.2537
2.66155e+07,-62.0603
2.66589e+07,-62.0856
2.67022e+07,-63.7743
2.67456e+07,-63.697
2.67889e+07,-63.4446
2.68323e+07,-62.729
2.68756e+07,-64.0358
2.6919e+07,-62.1701
2.69623e+07,-62.6465
2.70057e+07,-62.8112
2.7049e+07,-63.0311
2.70924e+07,-63.8039
2.71357e+07,-61.9489
2.71791e+07,-62.8476
2.72224e+07,-63.1018
2.72658e+07,-63.6187
2.73091e+07,-63.1351
2.73525e+07,-63.4178
2.73958e+07,-63.1974
2.74391e+07,-63.6333
2.74825e+07,-63.1009
2.75258e+07,-61.2945
2.75692e+07,-62.8416
2.76125e+07,-63.2743
2.76559e+07,-63.24
2.76992e+07,-62.6393
2.77426e+07,-62.9389
2.77859e+07,-63.4959
2.78293e+07,-63.6727
2.78726e+07,-62.6251
2.7916e+07,-63.5305
2.79593e+07,-63.2584
2.80027e+07,-63.2388
2.8046e+07,-63.1084
2.80894e+07,-63.3117
2.81327e+07,-62.961
2.81761e+07,-62.8116
2.82194e+07,-63.1174
2.82628e+07,-62.8391
2.83061e+07,-63.5493
2.83494e+07,-63.4839
2.83928e+07,-63.686
2.84361e+07,-63.1262
2.84795e+07,-63.6754
2.85228e+07,-64.0619
2.85662e+07,-64.4439
2.86095e+07,-63.7262
2.86529e+07,-63.8974
2.86962e+07,-63.9921
2.87396e+07,-63.4575
2.87829e+07,-63.1779
2.88263e+07,-63.9969
2.88696e+07,-63.1487
2.8913e+07,-62.7078
2.89563e+07,-63.3873
2.89997e+07,-62.6983
2.9043e+07,-63.124
2.90864e+07,-63.602
2.91297e+07,-61.4257
2.91731e+07,-63.0471
2.92164e+07,-63.2053
2.92598e+07,-63.1907
2.93031e+07,-63.8532
2.93464e+07,-62.647
2.93898e+07,-63.7029
2.94331e+07,-63.1563
2.94765e+07,-64.0745
2.95198e+07,-61.9111
2.95632e+07,-62.619
2.96065e+07,-63.651
2.96499e+07,-63.0027
2.96932e+07,-64.1922
2.97366e+07,-62.8943
2.97799e+07,-62.6047
2.98233e+07,-62.6408
2.98666e+07,-61.9432
2.991e+07,-64.0515
2.99533e+07,-63.2221
2.99967e+07,-64.2729
3.004e+07,-63.6189
3.00834e+07,-63.8139
3.01267e+07,-62.6897
3.01701e+07,-62.8648
3.02134e+07,-62.7858
3.02568e+07,-62.9769
3.03001e+07,-63.3184
3.03434e+07,-62.9202
3.03868e+07,-62.5799
3.04301e+07,-62.6386
3.04735e+07,-63.0235
3.05168e+07,-62.8356
3.05602e+07,-62.2173
3.06035e+07,-62.7659
3.06469e+07,-62.8724
3.06902e+07,-62.9612
3.07336e+07,-62.5382
3.07769e+07,-63.07
3.08203e+07,-63.4004
3.08636e+07,-63.1415
3.0907e+07,-64.2041
3.09503e+07,-63.1508
3.09937e+07,-62.5597
3.1037e+07,-62.6137
3.10804e+07,-62.815
3.11237e+07,-61.8678
3.11671e+07,-62.2498
3.12104e+07,-63.1451
3.12538e+07,-63.3003
3.12971e+07,-62.5407
3.13404e+07,-61.867
3.13838e+07,-61.896
3.14271e+07,-62.9163
3.14705e+07,-63.3339
3.15138e+07,-62.7627
3.15572e+07,-62.9252
3.16005e+07,-62.3663
3.16439e+07,-61.9369
3.16872e+07,-62.9248
3.17306e+07,-62.2913
3.17739e+07,-61.2676
3.18173e+07,-62.2215
3.18606e+07,-63.6174
3.1904e+07,-61.571
3.19473e+07,-62.624
3.19907e+07,-62.8536
3.2034e+07,-62.7746
3.20774e+07,-62.7652
3.21207e+07,-61.6145
3.21641e+07,-61.3872
3.22074e+07,-60.5839
3.22508e+07,-62.1552
3.22941e+07,-62.8851
3.23374e+07,-62.2153
3.23808e+07,-62.4741
3.24241e+07,-61.5731
3.24675e+07,-61.481
3.25108e+07,-60.2592
3.25542e+07,-62.3628
3.25975e+07,-62.1111
3.26409e+07,-61.971
3.26842e+07,-61.6286
3.27276e+07,-61.8165
3.27709e+07,-61.0533
3.28143e+07,-61.6727
3.28576e+07,-60.7957
3.2901e+07,-61.3493
3.29443e+07,-62.2347
3.29877e+07,-62.1741
3.3031e+07,-61.6842
3.30744e+07,-60.9059
3.31177e+07,-63.0806
3.31611e+07,-60.5733
3.32044e+07,-61.5543
3.32477e+07,-61.8851
3.32911e+07,-62.4575
3.33344e+07,-62.2986
3.33778e+07,-62.8579
3.34211e+07,-61.7317
3.34645e+07,-62.3948
3.35078e+07,-62.1679
3.35512e+07,-62.7094
3.35945e+07,-61.9215
3.36379e+07,-63.0501
3.36812e+07,-62.7319
3.37246e+07,-62.8148
3.37679e+07,-62.9974
3.38113e+07,-62.5226
3.38546e+07,-63.1355
3.3898e+07,-61.8953
3.39413e+07,-63.3397
3.39847e+07,-62.6349
3.4028e+07,-62.0974
3.40714e+07,-61.5311
3.41147e+07,-62.3616
3.41581e+07,-62.8411
3.42014e+07,-62.3833
3.42447e+07,-62.2387
3.42881e+07,-62.1823
3.43314e+07,-61.5142
3.43748e+07,-63.353
3.44181e+07,-62.9337
3.44615e+07,-63.1334
3.45048e+07,-62.2639
3.45482e+07,-62.5695
3.45915e+07,-62.6055
3.46349e+07,-63.4413
3.46782e+07,-62.8253
3.47216e+07,-62.9326
3.47649e+07,-62.43
3.48083e+07,-62.324
3.48516e+07,-62.1631
3.4895e+07,-62.7459
3.49383e+07,-62.3542
3.49817e+07,-62.6131
3.5025e+07,-62.3671
3.50684e+07,-62.0511
3.51117e+07,-62.7497
3.51551e+07,-62.1792
3.51984e+07,-62.8281
3.52417e+07,-62.8745
3.52851e+07,-62.9165
3.53284e+07,-63.087
3.53718e+07,-63.6099
3.54151e+07,-62.7671
3.54585e+07,-63.0674
3.55018e+07,-63.2703
3.55452e+07,-62.7298
3.55885e+07,-62.748
3.56319e+07,-63.1774
3.56752e+07,-62.2727
3.57186e+07,-63.211
3.57619e+07,-62.854
3.58053e+07,-62.4886
3.58486e+07,-61.7805
3.5892e+07,-62.4704
3.59353e+07,-61.8671
3.59787e+07,-61.9171
3.6022e+07,-63.3273
3.60654e+07,-62.682
3.61087e+07,-61.4085
3.61521e+07,-63.1128
3.61954e+07,-62.3365
3.62387e+07,-62.8756
3.62821e+07,-62.5722
3.63254e+07,-63.2771
3.63688e+07,-61.4036
3.64121e+07,-61.7867
3.64555e+07,-60.2208
3.64988e+07,-62.884
3.65422e+07,-62.3573
3.65855e+07,-61.782
3.66289e+07,-62.037
3.66722e+07,-62.1953
3.67156e+07,-62.2342
3.67589e+07,-62.0962
3.68023e+07,-62.2687
3.68456e+07,-61.9014
3.6889e+07,-62.5655
3.69323e+07,-61.577
3.69757e+07,-62.2029
3.7019e+07,-62.6558
3.70624e+07,-61.8092
3.71057e+07,-62.4349
3.7149e+07,-63.0137
3.71924e+07,-62.9003
3.72357e+07,-62.2453
3.72791e+07,-60.9993
3.73224e+07,-62.8623
3.73658e+07,-62.3675
3.74091e+07,-61.5833
3.74525e+07,-61.7583
3.74958e+07,-61.4629
3.75392e+07,-61.9492
3.75825e+07,-62.4688
3.76259e+07,-62.4286
3.76692e+07,-62.8192
3.77126e+07,-61.8941
3.77559e+07,-61.8814
3.77993e+07,-62.4368
3.78426e+07,-61.5215
3.7886e+07,-62.6755
3.79293e+07,-63.1257
3.79727e+07,-61.8183
3.8016e+07,-61.4135
3.80594e+07,-62.1429
3.81027e+07,-63.3445
3.8146e+07,-62.9864
3.81894e+07,-61.4883
3.82327e+07,-59.5835
3.82761e+07,-62.5111
3.83194e+07,-62.5289
3.83628e+07,-61.8376
3.84061e+07,-61.9925
3.84495e+07,-62.1587
3.84928e+07,-63.5126
3.85362e+07,-62.167
3.85795e+07,-62.3764
3.86229e+07,-62.319
3.86662e+07,-61.6965
3.87096e+07,-62.5635
3.87529e+07,-62.3935
3.87963e+07,-62.8198
3.88396e+07,-62.2963
3.8883e+07,-61.9992
3.89263e+07,-61.8232
3.89697e+07,-62.3618
3.9013e+07,-61.5978
3.90564e+07,-61.2569
3.90997e+07,-62.0323
3.9143e+07,-61.8058
3.91864e+07,-63.2131
3.92297e+07,-62.8882
3.92731e+07,-62.9115
3.93164e+07,-62.4984
3.93598e+07,-62.6839
3.94031e+07,-62.5025
3.94465e+07,-62.3689
3.94898e+07,-62.2896
3.95332e+07,-62.1376
3.95765e+07,-61.3763
3.96199e+07,-62.4347
3.96632e+07,-61.282
3.97066e+07,-61.7625
3.97499e+07,-61.3521
3.97933e+07,-61.1385
3.98366e+07,-60.2535
3.988e+07,-61.5785
3.99233e+07,-61.0503
3.99667e+07,-60.8662
4.001e+07,-61.8775
4.00534e+07,-62.0289
4.00967e+07,-61.94
4.014e+07,-62.3004
4.01834e+07,-62.0412
4.02267e+07,-61.86
4.02701e+07,-62.4013
4.03134e+07,-62.0876
4.03568e+07,-60.5905
4.04001e+07,-62.1002
4.04435e+07,-62.2512
4.04868e+07,-61.6127
4.05302e+07,-63.1598
4.05735e+07,-62.6567
4.06169e+07,-61.9887
4.06602e+07,-62.3822
4.07036e+07,-61.1237
4.07469e+07,-62.0519
4.07903e+07,-61.9797
4.08336e+07,-62.3418
4.0877e+07,-60.9601
4.09203e+07,-62.3812
4.09637e+07,-61.8449
4.1007e+07,-61.324
4.10504e+07,-61.8114
4.10937e+07,-62.3013
4.1137e+07,-61.9363
4.11804e+07,-62.4291
4.12237e+07,-61.0646
4.12671e+07,-61.4972
4.13104e+07,-62.4286
4.13538e+07,-62.0796
4.13971e+07,-62.1051
4.14405e+07,-61.2912
4.14838e+07,-62.1392
4.15272e+07,-62.0109
4.15705e+07,-61.0824
4.16139e+07,-61.8968
4.16572e+07,-61.6247
4.17006e+07,-62.0998
4.17439e+07,-61.9805
4.17873e+07,-61.7839
4.18306e+07,-61.6281
4.1874e+07,-61.3957
4.19173e+07,-61.8665
4.19607e+07,-61.6398
4.2004e+07,-61.887
4.20473e+07,-62.09
4.20907e+07,-61.1841
4.2134e+07,-60.8695
4.21774e+07,-61.2379
4.22207e+07,-61.7452
4.22641e+07,-61.2999
4.23074e+07,-60.6958
4.23508e+07,-61.4933
4.23941e+07,-62.1921
4.24375e+07,-61.8105
4.24808e+07,-61.358
4.25242e+07,-62.0413
4.25675e+07,-62.1525
4.26109e+07,-61.4128
4.26542e+07,-62.2826
4.26976e+07,-61.1511
4.27409e+07,-61.6329
4.27843e+07,-61.4201
4.28276e+07,-62.5397
4.2871e+07,-61.093
4.29143e+07,-61.2469
4.29577e+07,-61.3014
4.3001e+07,-61.9802
4.30443e+07,-61.9294
4.30877e+07,-60.3009
4.3131e+07,-60.6202
4.31744e+07,-61.3634
4.32177e+07,-60.5228
4.32611e+07,-61.506
4.33044e+07,-60.3842
4.33478e+07,-61.4498
4.33911e+07,-59.779
4.34345e+07,-60.0489
4.34778e+07,-61.087
4.35212e+07,-60.0927
4.35645e+07,-60.178
4.36079e+07,-59.2312
4.36512e+07,-60.2433
4.36946e+07,-58.7483
4.37379e+07,-58.6265
4.37813e+07,-58.0642
4.38246e+07,-57.9329
4.3868e+07,-56.3922
4.39113e+07,-56.6607
4.39547e+07,-57.3797
4.3998e+07,-57.935
4.40413e+07,-56.5057
4.40847e+07,-57.5605
4.4128e+07,-56.2261
4.41714e+07,-58.6451
4.42147e+07,-54.348
4.42581e+07,-58.1518
4.43014e+07,-55.4179
4.43448e+07,-58.3192
4.43881e+07,-54.7594
4.44315e+07,-58.4363
4.44748e+07,-54.919
4.45182e+07,-58.5094
4.45615e+07,-54.9281
4.46049e+07,-58.5489
4.46482e+07,-54.9053
4.46916e+07,-57.7564
4.47349e+07,-54.311
4.47783e+07,-58.5855
4.48216e+07,-55.666
4.4865e+07,-59.2699
4.49083e+07,-54.8074
4.49517e+07,-59.0132
4.4995e+07,-54.7572
4.50383e+07,-59.1006
4.50817e+07,-54.7146
4.5125e+07,-59.2165
4.51684e+07,-54.9071
4.52117e+07,-60.2585
4.52551e+07,-55.9367
4.52984e+07,-60.0117
4.53418e+07,-55.2937
4.53851e+07,-58.8685
4.54285e+07,-56.0444
4.54718e+07,-59.3174
4.55152e+07,-54.209
4.55585e+07,-58.9421
4.56019e+07,-56.4328
4.56452e+07,-60.6511
4.56886e+07,-55.9584
4.57319e+07,-58.8643
4.57753e+07,-56.3698
4.58186e+07,-59.7081
4.5862e+07,-55.8317
4.59053e+07,-59.8358
4.59486e+07,-56.0617
4.5992e+07,-59.562
4.60353e+07,-56.6462
4.60787e+07,-58.7484
4.6122e+07,-57.0492
4.61654e+07,-60.1173
4.62087e+07,-57.0034
4.62521e+07,-60.356
4.62954e+07,-57.5907
4.63388e+07,-59.2863
4.63821e+07,-57.9105
4.64255e+07,-59.8937
4.64688e+07,-57.8363
4.65122e+07,-59.7415
4.65555e+07,-57.9364
4.65989e+07,-58.8523
4.66422e+07,-56.5937
4.66856e+07,-57.9919
4.67289e+07,-58.7432
4.67723e+07,-59.0127
4.68156e+07,-58.5438
4.6859e+07,-59.7599
4.69023e+07,-58.3965
4.69456e+07,-59.8354
4.6989e+07,-58.3431
4.70323e+07,-59.39
4.70757e+07,-59.1542
4.7119e+07,-58.8121
4.71624e+07,-58.2841
4.72057e+07,-58.3926
4.72491e+07,-57.7446
4.72924e+07,-59.0078
4.73358e+07,-58.9656
4.73791e+07,-59.2053
4.74225e+07,-58.2473
4.74658e+07,-58.9801
4.75092e+07,-58.3859
4.75525e+07,-59.3505
4.75959e+07,-58.6472
4.76392e+07,-59.0548
4.76826e+07,-57.5755
4.77259e+07,-58.5263
4.77693e+07,-58.5319
4.78126e+07,-56.9334
4.7856e+07,-57.1833
4.78993e+07,-58.4182
4.79426e+07,-57.6902
4.7986e+07,-57.2735
4.80293e+07,-57.7939
4.80727e+07,-58.1299
4.8116e+07,-57.9547
4.81594e+07,-57.3696
4.82027e+07,-58.1923
4.82461e+07,-58.113
4.82894e+07,-56.9388
4.83328e+07,-57.6347
4.83761e+07,-57.5171
4.84195e+07,-57.5703
4.84628e+07,-55.8599
4.85062e+07,-57.6135
4.85495e+07,-58.3013
4.85929e+07,-57.1198
4.86362e+07,-57.7813
4.86796e+07,-57.4302
4.87229e+07,-56.6113
4.87663e+07,-57.6049
4.88096e+07,-57.5996
4.8853e+07,-58.2808
4.88963e+07,-57.4119
4.89396e+07,-56.3962
4.8983e+07,-56.9982
4.90263e+07,-57.0507
4.90697e+07,-57.2918
4.9113e+07,-58.2965
4.91564e+07,-57.3734
4.91997e+07,-57.565
4.92431e+07,-58.4839
4.92864e+07,-57.5519
4.93298e+07,-58.8071
4.93731e+07,-57.1146
4.94165e+07,-57.8572
4.94598e+07,-57.836
4.95032e+07,-59.7932
4.95465e+07,-57.987
4.95899e+07,-56.6632
4.96332e+07,-58.2974
4.96766e+07,-59.1909
4.97199e+07,-57.7305
4.97633e+07,-59.6646
4.98066e+07,-59.2459
4.98499e+07,-60.4562
4.98933e+07,-58.6563
4.99366e+07,-58.507
4.998e+07,-58.5811
5.00233e+07,-59.7683
5.00667e+07,-59.732
5.011e+07,-60.1717
5.01534e+07,-58.6757
5.01967e+07,-60.6275
5.02401e+07,-58.5032
5.02834e+07,-59.7412
5.03268e+07,-59.8865
5.03701e+07,-60.9486
5.04135e+07,-60.0443
5.04568e+07,-59.8329
5.05002e+07,-60.3129
5.05435e+07,-60.3724
5.05869e+07,-58.9572
5.06302e+07,-60.5538
5.06736e+07,-59.1049
5.07169e+07,-60.989
5.07603e+07,-59.989
5.08036e+07,-60.4744
5.08469e+07,-60.4993
5.08903e+07,-60.5135
5.09336e+07,-58.6906
5.0977e+07,-60.801
5.10203e+07,-60.4133
5.10637e+07,-60.9389
5.1107e+07,-60.2516
5.11504e+07,-60.8264
5.11937e+07,-60.3951
5.12371e+07,-60.3808
5.12804e+07,-60.0823
5.13238e+07,-60.1713
5.13671e+07,-60.6383
5.14105e+07,-60.6855
5.14538e+07,-61.4332
5.14972e+07,-61.5011
5.15405e+07,-61.513
5.15839e+07,-60.522
5.16272e+07,-61.5288
5.16706e+07,-61.6259
5.17139e+07,-62.0601
5.17573e+07,-60.8542
5.18006e+07,-60.2877
5.18439e+07,-61.3132
5.18873e+07,-61.4677
5.19306e+07,-61.6905
5.1974e+07,-61.8854
5.20173e+07,-62.5526
5.20607e+07,-60.7532
5.2104e+07,-62.5026
5.21474e+07,-63.0561
5.21907e+07,-61.3357
5.22341e+07,-61.7969
5.22774e+07,-62.5156
5.23208e+07,-61.6728
5.23641e+07,-61.834
5.24075e+07,-62.0067
5.24508e+07,-62.3054
5.24942e+07,-62.8321
5.25375e+07,-62.7342
5.25809e+07,-60.9453
5.26242e+07,-62.4336
5.26676e+07,-59.9391
5.27109e+07,-62.9398
5.27543e+07,-63.0063
5.27976e+07,-61.8034
5.28409e+07,-62.5093
5.28843e+07,-62.7377
5.29276e+07,-62.7422
5.2971e+07,-63.2037
5.30143e+07,-62.264
5.30577e+07,-62.9624
5.3101e+07,-61.0918
5.31444e+07,-63.1787
5.31877e+07,-62.5398
5.32311e+07,-62.9144
5.32744e+07,-62.7829
5.33178e+07,-62.6717
5.33611e+07,-62.8904
5.34045e+07,-62.7639
5.34478e+07,-62.4758
5.34912e+07,-62.639
5.35345e+07,-60.7706
5.35779e+07,-61.6035
5.36212e+07,-62.6707
5.36646e+07,-61.9601
5.37079e+07,-61.3902
5.37513e+07,-62.5425
5.37946e+07,-62.3941
5.38379e+07,-62.3628
5.38813e+07,-61.913
5.39246e+07,-60.7214
5.3968e+07,-61.2204
5.40113e+07,-61.7291
5.40547e+07,-61.8662
5.4098e+07,-61.663
5.41414e+07,-61.3808
5.41847e+07,-62.6965
5.42281e+07,-62.1079
5.42714e+07,-61.8278
5.43148e+07,-61.7985
5.43581e+07,-61.9579
5.44015e+07,-61.384
5.44448e+07,-61.4276
5.44882e+07,-62.1416
5.45315e+07,-62.3296
5.45749e+07,-62.9813
5.46182e+07,-62.2413
5.46616e+07,-62.7089
5.47049e+07,-61.2063
5.47482e+07,-62.298
5.47916e+07,-62.3421
5.48349e+07,-61.7182
5.48783e+07,-61.8092
5.49216e+07,-62.6988
5.4965e+07,-62.8055
5.50083e+07,-62.192
5.50517e+07,-61.124
5.5095e+07,-61.9175
5.51384e+07,-62.4166
5.51817e+07,-60.8209
5.52251e+07,-62.7163
5.52684e+07,-62.3405
5.53118e+07,-62.0058
5.53551e+07,-62.0699
5.53985e+07,-62.8321
5.54418e+07,-62.7202
5.54852e+07,-62.4558
5.55285e+07,-62.7896
5.55719e+07,-61.7986
5.56152e+07,-62.5865
5.56586e+07,-63.5696
5.57019e+07,-63.1949
5.57452e+07,-63.3526
5.57886e+07,-63.2289
5.58319e+07,-63.5844
5.58753e+07,-63.6664
5.59186e+07,-63.6715
5.5962e+07,-63.332
5.60053e+07,-62.8866
5.60487e+07,-62.2324
5.6092e+07,-63.5733
5.61354e+07,-63.1545
5.61787e+07,-62.494
5.62221e+07,-63.4361
5.62654e+07,-63.3759
5.63088e+07,-62.8762
5.63521e+07,-63.7375
5.63955e+07,-63.5316
5.64388e+07,-63.5112
5.64822e+07,-63.5823
5.65255e+07,-62.511
5.65689e+07,-63.4703
5.66122e+07,-61.9549
5.66556e+07,-62.8563
5.66989e+07,-61.5731
5.67422e+07,-63.2259
5.67856e+07,-64.3674
5.68289e+07,-62.9932
5.68723e+07,-63.741
5.69156e+07,-64.2392
5.6959e+07,-61.9835
5.70023e+07,-63.181
5.70457e+07,-63.289
5.7089e+07,-63.1759
5.71324e+07,-64.0046
5.71757e+07,-61.5434
5.72191e+07,-63.2098
5.72624e+07,-61.5837
5.73058e+07,-63.9454
5.73491e+07,-63.5645
5.73925e+07,-62.8684
5.74358e+07,-63.2584
5.74792e+07,-62.8776
5.75225e+07,-63.7341
5.75659e+07,-63.3572
5.76092e+07,-62.1711
5.76526e+07,-63.7547
5.76959e+07,-61.952
5.77392e+07,-63.3868
5.77826e+07,-62.603
5.78259e+07,-62.2536
5.78693e+07,-62.5845
5.79126e+07,-63.0962
5.7956e+07,-63.1543
5.79993e+07,-63.2276
5.80427e+07,-63.1395
5.8086e+07,-62.9996
5.81294e+07,-63.1929
5.81727e+07,-63.5269
5.82161e+07,-63.4811
5.82594e+07,-63.4659
5.83028e+07,-62.9039
5.83461e+07,-63.0133
5.83895e+07,-61.4961
5.84328e+07,-63.3801
5.84762e+07,-63.9692
5.85195e+07,-63.7265
5.85629e+07,-64.0984
5.86062e+07,-62.2737
5.86495e+07,-64.0548
5.86929e+07,-63.3296
5.87362e+07,-63.133
5.87796e+07,-63.1329
5.88229e+07,-62.9121
5.88663e+07,-63.6223
5.89096e+07,-62.6231
5.8953e+07,-62.4014
5.89963e+07,-63.1227
5.90397e+07,-62.9925
5.9083e+07,-64.5084
5.91264e+07,-62.6686
5.91697e+07,-62.2768
5.92131e+07,-63.2001
5.92564e+07,-63.2393
5.92998e+07,-62.8496
5.93431e+07,-63.0638
5.93865e+07,-62.7234
5.94298e+07,-63.8924
5.94732e+07,-63.2044
5.95165e+07,-63.9187
5.95599e+07,-62.7788
5.96032e+07,-63.0055
5.96465e+07,-62.0154
5.96899e+07,-62.7505
5.97332e+07,-62.6671
5.97766e+07,-63.2577
5.98199e+07,-63.0146
5.98633e+07,-62.9667
5.99066e+07,-61.2779
5.995e+07,-63.1447
5.99933e+07,-62.9521
6.00367e+07,-63.3363
6.008e+07,-62.466
6.01234e+07,-63.401
6.01667e+07,-62.4119
6.02101e+07,-61.6747
6.02534e+07,-61.0677
6.02968e+07,-62.3893
6.03401e+07,-63.2613
6.03835e+07,-62.3091
6.04268e+07,-63.0227
6.04702e+07,-63.4706
6.05135e+07,-63.943
6.05569e+07,-63.732
6.06002e+07,-63.6956
6.06435e+07,-62.043
6.06869e+07,-62.7202
6.07302e+07,-61.3984
6.07736e+07,-63.4346
6.08169e+07,-60.6001
6.08603e+07,-63.3493
6.09036e+07,-62.2112
6.0947e+07,-63.9954
6.09903e+07,-62.8927
6.10337e+07,-62.1195
6.1077e+07,-64.0274
6.11204e+07,-62.5813
6.11637e+07,-62.4364
6.12071e+07,-62.3071
6.12504e+07,-63.4941
6.12938e+07,-63.156
6.13371e+07,-63.9143
6.13805e+07,-62.7697
6.14238e+07,-63.1557
6.14672e+07,-61.7916
6.15105e+07,-63.1701
6.15539e+07,-63.0585
6.15972e+07,-63.4477
6.16405e+07,-63.7712
6.16839e+07,-63.1697
6.17272e+07,-64.3721
6.17706e+07,-64.0311
6.18139e+07,-64.1014
6.18573e+07,-64.1832
6.19006e+07,-64.4846
6.1944e+07,-64.3492
6.19873e+07,-64.49
6.20307e+07,-63.2819
6.2074e+07,-64.1937
6.21174e+07,-64.2487
6.21607e+07,-64.6329
6.22041e+07,-64.6444
6.22474e+07,-64.003
6.22908e+07,-63.8696
6.23341e+07,-64.1711
6.23775e+07,-64.2757
6.24208e+07,-63.7328
6.24642e+07,-65.0525
6.25075e+07,-63.7325
6.25509e+07,-65.2176
6.25942e+07,-65.0038
6.26375e+07,-64.0831
6.26809e+07,-63.1967
6.27242e+07,-63.9697
6.27676e+07,-63.6283
6.28109e+07,-65.0093
6.28543e+07,-65.1185
6.28976e+07,-65.149
6.2941e+07,-64.901
6.29843e+07,-64.5389
6.30277e+07,-63.561
6.3071e+07,-65.1548
6.31144e+07,-65.3095
6.31577e+07,-65.6211
6.32011e+07,-64.7879
6.32444e+07,-63.7883
6.32878e+07,-64.4926
6.33311e+07,-65.6792
6.33745e+07,-65.4284
6.34178e+07,-64.3456
6.34612e+07,-66.5276
6.35045e+07,-65.3839
6.35478e+07,-64.2563
6.35912e+07,-65.1351
6.36345e+07,-65.371
6.36779e+07,-64.4519
6.37212e+07,-64.6407
6.37646e+07,-65.0919
6.38079e+07,-65.6001
6.38513e+07,-65.1345
6.38946e+07,-64.7685
6.3938e+07,-64.6171
6.39813e+07,-66.2087
6.40247e+07,-64.6111
6.4068e+07,-65.3197
6.41114e+07,-64.6572
6.41547e+07,-64.6223
6.41981e+07,-62.1422
6.42414e+07,-65.7359
6.42848e+07,-65.6184
6.43281e+07,-65.9282
6.43715e+07,-65.5923
6.44148e+07,-64.6217
6.44582e+07,-65.1392
6.45015e+07,-64.9751
6.45448e+07,-61.5459
6.45882e+07,-65.1205
6.46315e+07,-65.5081
6.46749e+07,-65.4952
6.47182e+07,-65.5657
6.47616e+07,-65.1017
6.48049e+07,-64.7781
6.48483e+07,-64.4039
6.48916e+07,-64.4207
6.4935e+07,-65.4691
6.49783e+07,-65.5201
6.50217e+07,-65.6361
6.5065e+07,-64.2195
6.51084e+07,-63.2301
6.51517e+07,-63.4241
6.51951e+07,-65.7599
6.52384e+07,-63.3288
6.52818e+07,-64.1421
6.53251e+07,-65.0214
6.53685e+07,-65.0516
6.54118e+07,-64.8891
6.54552e+07,-65.3792
6.54985e+07,-64.7354
6.55418e+07,-66.1221
6.55852e+07,-65.1242
6.56285e+07,-65.423
6.56719e+07,-64.5039
6.57152e+07,-64.3681
6.57586e+07,-63.3225
6.58019e+07,-63.6623
6.58453e+07,-64.8881
6.58886e+07,-64.6239
6.5932e+07,-65.2404
6.59753e+07,-63.2675
6.60187e+07,-65.6142
6.6062e+07,-64.3002
6.61054e+07,-63.8129
6.61487e+07,-64.8043
6.61921e+07,-64.3389
6.62354e+07,-64.4118
6.62788e+07,-64.8454
6.63221e+07,-65.3331
6.63655e+07,-65.031
6.64088e+07,-64.64
6.64522e+07,-63.7963
6.64955e+07,-65.1896
6.65388e+07,-64.5648
6.65822e+07,-64.0519
6.66255e+07,-65.0122
6.66689e+07,-65.3322
6.67122e+07,-61.9515
6.67556e+07,-64.1769
6.67989e+07,-65.226
6.68423e+07,-65.2943
6.68856e+07,-64.2427
6.6929e+07,-64.6446
6.69723e+07,-65.7359
6.70157e+07,-65.8682
6.7059e+07,-65.6117
6.71024e+07,-64.438
6.71457e+07,-65.5341
6.71891e+07,-65.4066
6.72324e+07,-65.5661
6.72758e+07,-65.0652
6.73191e+07,-65.1507
6.73625e+07,-65.1016
6.74058e+07,-65.0103
6.74491e+07,-65.5527
6.74925e+07,-65.181
6.75358e+07,-65.4501
6.75792e+07,-64.9617
6.76225e+07,-64.86
6.76659e+07,-64.5735
6.77092e+07,-66.0963
6.77526e+07,-64.8954
6.77959e+07,-65.9804
6.78393e+07,-65.3044
6.78826e+07,-65.0637
6.7926e+07,-65.2418
6.79693e+07,-65.3983
6.80127e+07,-65.1061
6.8056e+07,-65.2602
6.80994e+07,-65.7463
6.81427e+07,-65.4169
6.81861e+07,-65.8321
6.82294e+07,-65.9726
6.82728e+07,-65.1177
6.83161e+07,-66.345
6.83595e+07,-65.9791
6.84028e+07,-65.8849
6.84461e+07,-65.1295
6.84895e+07,-65.878
6.85328e+07,-66.6312
6.85762e+07,-66.4437
6.86195e+07,-66.2741
6.86629e+07,-65.2961
6.87062e+07,-65.5047
6.87496e+07,-66.1764
6.87929e+07,-65.738
6.88363e+07,-66.4788
6.88796e+07,-66.5146
6.8923e+07,-65.9642
6.89663e+07,-66.2663
6.90097e+07,-66.0182
6.9053e+07,-65.3453
6.90964e+07,-66.2799
6.91397e+07,-65.7109
6.91831e+07,-66.8361
6.92264e+07,-66.364
6.92698e+07,-66.5931
6.93131e+07,-66.0378
6.93565e+07,-65.5481
6.93998e+07,-66.8356
6.94431e+07,-66.4345
6.94865e+07,-66.5998
6.95298e+07,-66.5562
6.95732e+07,-66.1883
6.96165e+07,-66.614
6.96599e+07,-66.8275
6.97032e+07,-66.5414
6.97466e+07,-66.7015
6.97899e+07,-64.9744
6.98333e+07,-66.4764
6.98766e+07,-66.738
6.992e+07,-65.9483
6.99633e+07,-66.4976
7.00067e+07,-66.6277
7.005e+07,-66.0361
7.00934e+07,-66.3619
7.01367e+07,-65.748
7.01801e+07,-67.2698
7.02234e+07,-66.9462
7.02668e+07,-66.3474
7.03101e+07,-67.1914
7.03535e+07,-67.1525
7.03968e+07,-66.3471
7.04401e+07,-66.2837
7.04835e+07,-65.1308
7.05268e+07,-66.3116
7.05702e+07,-65.8663
7.06135e+07,-65.9399
7.06569e+07,-64.9482
7.07002e+07,-65.9397
7.07436e+07,-64.2556
7.07869e+07,-67.1128
7.08303e+07,-65.9394
7.08736e+07,-66.6548
7.0917e+07,-65.366
7.09603e+07,-65.8453
7.10037e+07,-66.1227
7.1047e+07,-65.5504
7.10904e+07,-64.9232
7.11337e+07,-66.9744
7.11771e+07,-66.1292
7.12204e+07,-65.6146
7.12638e+07,-65.8913
7.13071e+07,-65.9787
7.13505e+07,-64.8213
7.13938e+07,-66.5157
7.14371e+07,-64.9644
7.14805e+07,-66.0667
7.15238e+07,-65.7644
7.15672e+07,-66.5009
7.16105e+07,-65.0913
7.16539e+07,-63.5096
7.16972e+07,-65.594
7.17406e+07,-66.3934
7.17839e+07,-65.9708
7.18273e+07,-66.0046
7.18706e+07,-65.7768
7.1914e+07,-64.5863
7.19573e+07,-64.1205
7.20007e+07,-66.7921
7.2044e+07,-66.0996
7.20874e+07,-66.3925
7.21307e+07,-65.5995
7.21741e+07,-65.0716
7.22174e+07,-65.1635
7.22608e+07,-66.2374
7.23041e+07,-64.2131
7.23474e+07,-65.1508
7.23908e+07,-64.8011
7.24341e+07,-65.8751
7.24775e+07,-65.9354
7.25208e+07,-65.2681
7.25642e+07,-66.8803
7.26075e+07,-66.0163
7.26509e+07,-65.553
7.26942e+07,-65.9822
7.27376e+07,-65.6696
7.27809e+07,-64.3961
7.28243e+07,-64.8296
7.28676e+07,-65.3487
7.2911e+07,-65.5459
7.29543e+07,-66.0291
7.29977e+07,-66.0494
7.3041e+07,-66.0972
7.30844e+07,-65.6037
7.31277e+07,-66.6274
7.31711e+07,-65.5004
7.32144e+07,-66.8115
7.32578e+07,-66.3331
7.33011e+07,-66.214
7.33444e+07,-65.9333
7.33878e+07,-65.7007
7.34311e+07,-65.2348
7.34745e+07,-66.4533
7.35178e+07,-67.3803
7.35612e+07,-65.9801
7.36045e+07,-65.3721
7.36479e+07,-65.6608
7.36912e+07,-66.2899
7.37346e+07,-65.6933
7.37779e+07,-66.1643
7.38213e+07,-67.2767
7.38646e+07,-66.9754
7.3908e+07,-66.5674
7.39513e+07,-66.6987
7.39947e+07,-66.5672
7.4038e+07,-66.7723
7.40814e+07,-65.9788
7.41247e+07,-66.0535
7.41681e+07,-66.3521
7.42114e+07,-66.5089
7.42548e+07,-66.4086
7.42981e+07,-65.6854
7.43414e+07,-66.3942
7.43848e+07,-66.4583
7.44281e+07,-66.9816
7.44715e+07,-66.8757
7.45148e+07,-67.127
7.45582e+07,-66.5225
7.46015e+07,-65.8499
7.46449e+07,-65.5418
7.46882e+07,-66.4575
7.47316e+07,-65.8562
7.47749e+07,-68.133
7.48183e+07,-67.1031
7.48616e+07,-67.3215
7.4905e+07,-66.3716
7.49483e+07,-66.8073
7.49917e+07,-67.4807
7.5035e+07,-67.4245
7.50784e+07,-66.9119
7.51217e+07,-66.579
7.51651e+07,-66.9117
7.52084e+07,-66.2512
7.52518e+07,-66.3495
7.52951e+07,-67.3919
7.53384e+07,-67.4718
7.53818e+07,-67.0633
7.54251e+07,-67.52
7.54685e+07,-66.5131
7.55118e+07,-66.3347
7.55552e+07,-66.7022
7.55985e+07,-67.2489
7.56419e+07,-66.2292
7.56852e+07,-66.9104
7.57286e+07,-67.2879
7.57719e+07,-67.3987
7.58153e+07,-66.6648
7.58586e+07,-66.7605
7.5902e+07,-67.3586
7.59453e+07,-66.9249
7.59887e+07,-67.303
7.6032e+07,-66.1796
7.60754e+07,-66.49
7.61187e+07,-67.1077
7.61621e+07,-67.0691
7.62054e+07,-65.1539
7.62487e+07,-66.8042
7.62921e+07,-67.177
7.63354e+07,-67.1458
7.63788e+07,-67.5016
7.64221e+07,-67.772
7.64655e+07,-67.9827
7.65088e+07,-68.0769
7.65522e+07,-67.0375
7.65955e+07,-67.5659
7.66389e+07,-67.8384
7.66822e+07,-66.8031
7.67256e+07,-67.3328
7.67689e+07,-67.7463
7.68123e+07,-66.5894
7.68556e+07,-66.7507
7.6899e+07,-66.825
7.69423e+07,-65.9314
7.69857e+07,-66.4735
7.7029e+07,-67.4597
7.70724e+07,-66.6252
7.71157e+07,-66.8095
7.71591e+07,-66.802
7.72024e+07,-67.3317
7.72457e+07,-67.0435
7.72891e+07,-67.0434
7.73324e+07,-65.0045
7.73758e+07,-66.2111
7.74191e+07,-65.7833
7.74625e+07,-66.7641
7.75058e+07,-66.959
7.75492e+07,-66.8309
7.75925e+07,-66.8084
7.76359e+07,-66.8907
7.76792e+07,-66.653
7.77226e+07,-66.3577
7.77659e+07,-67.3145
7.78093e+07,-66.1063
7.78526e+07,-65.7557
7.7896e+07,-67.1498
7.79393e+07,-66.2656
7.79827e+07,-66.3076
7.8026e+07,-66.6815
7.80694e+07,-66.7035
7.81127e+07,-66.4995
7.81561e+07,-66.9045
7.81994e+07,-65.9554
7.82427e+07,-66.4848
7.82861e+07,-67.3133
7.83294e+07,-65.7877
7.83728e+07,-66.7916
7.84161e+07,-65.6168
7.84595e+07,-66.9264
7.85028e+07,-67.1483
7.85462e+07,-66.3699
7.85895e+07,-65.1174
7.86329e+07,-65.4425
7.86762e+07,-64.6744
7.87196e+07,-65.7141
7.87629e+07,-66.1939
7.88063e+07,-66.6356
7.88496e+07,-66.9709
7.8893e+07,-66.9481
7.89363e+07,-66.85
7.89797e+07,-65.7994
7.9023e+07,-54.4041
7.90664e+07,-66.3262
7.91097e+07,-66.9855
7.91531e+07,-65.9937
7.91964e+07,-66.2276
7.92397e+07,-66.9928
7.92831e+07,-66.8043
7.93264e+07,-66.4894
7.93698e+07,-67.1076
7.94131e+07,-67.3105
7.94565e+07,-66.8938
7.94998e+07,-67.4538
7.95432e+07,-67.6241
7.95865e+07,-66.6411
7.96299e+07,-65.1456
7.96732e+07,-66.7587
7.97166e+07,-67.4132
7.97599e+07,-67.0681
7.98033e+07,-66.9383
7.98466e+07,-67.091
7.989e+07,-67.0909
7.99333e+07,-67.1682
7.99767e+07,-67.5985
8.002e+07,-66.9529
8.00634e+07,-67.0443
8.01067e+07,-66.8697
8.01501e+07,-67.5167
8.01934e+07,-67.0594
8.02367e+07,-66.9676
8.02801e+07,-67.4358
8.03234e+07,-67.5569
8.03668e+07,-67.8968
8.04101e+07,-67.4195
8.04535e+07,-66.9367
8.04968e+07,-66.4149
8.05402e+07,-67.5239
8.05835e+07,-66.9364
8.06269e+07,-68.5003
8.06702e+07,-67.5886
8.07136e+07,-67.268
8.07569e+07,-68.7389
8.08003e+07,-66.823
8.08436e+07,-68.1357
8.0887e+07,-68.0405
8.09303e+07,-66.154
8.09737e+07,-67.8028
8.1017e+07,-67.6781
8.10604e+07,-67.434
8.11037e+07,-67.2278
8.1147e+07,-67.8865
8.11904e+07,-66.5643
8.12337e+07,-66.9348
8.12771e+07,-67.0184
8.13204e+07,-67.6609
8.13638e+07,-67.0642
8.14071e+07,-67.8689
8.14505e+07,-67.8017
8.14938e+07,-67.71
8.15372e+07,-66.8587
8.15805e+07,-67.2659
8.16239e+07,-66.866
8.16672e+07,-67.0022
8.17106e+07,-68.3449
8.17539e+07,-68.151
8.17973e+07,-66.505
8.18406e+07,-67.1248
8.1884e+07,-67.944
8.19273e+07,-67.4399
8.19707e+07,-67.5042
8.2014e+07,-68.3888
8.20574e+07,-67.4557
8.21007e+07,-66.9707
8.2144e+07,-67.2567
8.21874e+07,-68.0116
8.22307e+07,-68.0459
8.22741e+07,-68.1846
8.23174e+07,-68.469
8.23608e+07,-66.382
8.24041e+07,-68.2634
8.24475e+07,-66.6782
8.24908e+07,-66.9091
8.25342e+07,-67.6333
8.25775e+07,-65.9651
8.26209e+07,-67.1695
8.26642e+07,-67.8659
8.27076e+07,-67.2005
8.27509e+07,-66.6408
8.27943e+07,-67.7317
8.28376e+07,-67.0607
8.2881e+07,-68.0616
8.29243e+07,-67.8148
8.29677e+07,-67.5749
8.3011e+07,-67.6815
8.30544e+07,-68.3149
8.30977e+07,-66.7579
8.3141e+07,-67.6977
8.31844e+07,-67.262
8.32277e+07,-67.4448
8.32711e+07,-66.9527
8.33144e+07,-66.75
8.33578e+07,-67.6067
8.34011e+07,-66.2946
8.34445e+07,-67.0592
8.34878e+07,-66.6683
8.35312e+07,-68.2342
8.35745e+07,-66.8914
8.36179e+07,-66.624
8.36612e+07,-66.9974
8.37046e+07,-66.9744
8.37479e+07,-66.4285
8.37913e+07,-67.043
8.38346e+07,-66.2444
8.3878e+07,-65.781
8.39213e+07,-66.6673
8.39647e+07,-67.2917
8.4008e+07,-67.3789
8.40514e+07,-66.8677
8.40947e+07,-67.0423
8.4138e+07,-67.1892
8.41814e+07,-67.1269
8.42247e+07,-67.5882
8.42681e+07,-66.2644
8.43114e+07,-66.7847
8.43548e+07,-67.7197
8.43981e+07,-67.1264
8.44415e+07,-67.4983
8.44848e+07,-66.6
8.45282e+07,-66.2919
8.45715e+07,-67.7858
8.46149e+07,-66.7766
8.46582e+07,-67.1724
8.47016e+07,-67.0408
8.47449e+07,-67.1488
8.47883e+07,-66.7761
8.48316e+07,-67.0482
8.4875e+07,-67.1407
8.49183e+07,-66.8206
8.49617e+07,-67.5865
8.5005e+07,-67.4004
8.50483e+07,-67.3525
8.50917e+07,-67.9023
8.5135e+07,-67.1091
8.51784e+07,-66.9178
8.52217e+07,-67.3521
8.52651e+07,-68.0042
8.53084e+07,-67.676
8.53518e+07,-67.1629
8.53951e+07,-67.0238
8.54385e+07,-65.9042
8.54818e+07,-67.8676
8.55252e+07,-67.817
8.55685e+07,-66.7297
8.56119e+07,-67.6423
8.56552e+07,-65.9509
8.56986e+07,-66.6483
8.57419e+07,-67.7329
8.57853e+07,-66.9618
8.58286e+07,-66.1768
8.5872e+07,-65.6575
8.59153e+07,-67.7658
8.59587e+07,-65.7032
8.6002e+07,-67.0993
8.60453e+07,-66.3802
8.60887e+07,-66.6254
8.6132e+07,-66.5669
8.61754e+07,-67.1454
8.62187e+07,-67.4779
8.62621e+07,-65.7355
8.63054e+07,-67.3018
8.63488e+07,-67.3097
8.63921e+07,-67.8654
8.64355e+07,-67.9246
8.64788e+07,-65.3981
8.65222e+07,-67.6979
8.65655e+07,-68.1568
8.66089e+07,-66.5876
8.66522e+07,-66.4933
8.66956e+07,-66.8088
8.67389e+07,-67.0513
8.67823e+07,-66.5364
8.68256e+07,-67.0357
8.6869e+07,-66.5652
8.69123e+07,-66.3852
8.69557e+07,-66.4065
8.6999e+07,-67.6225
8.70423e+07,-66.2858
8.70857e+07,-66.2296
8.7129e+07,-66.8452
8.71724e+07,-67.3156
8.72157e+07,-67.3234
8.72591e+07,-66.8524
8.73024e+07,-66.5714
8.73458e+07,-65.8727
8.73891e+07,-66.7699
8.74325e+07,-66.703
8.74758e+07,-66.9577
8.75192e+07,-66.9273
8.75625e+07,-66.7323
8.76059e+07,-67.5231
8.76492e+07,-66.2984
8.76926e+07,-66.8289
8.77359e+07,-65.8116
8.77793e+07,-67.2431
8.78226e+07,-66.8136
8.7866e+07,-66.9416
8.79093e+07,-67.9465
8.79527e+07,-67.3534
8.7996e+07,-67.1177
8.80393e+07,-66.7757
8.80827e+07,-66.2763
8.8126e+07,-67.2109
8.81694e+07,-67.5951
8.82127e+07,-67.2185
8.82561e+07,-68.2053
8.82994e+07,-66.7305
8.83428e+07,-66.8198
8.83861e+07,-66.4245
8.84295e+07,-67.2101
8.84728e+07,-65.2859
8.85162e+07,-66.7078
8.85595e+07,-66.6929
8.86029e+07,-67.1395
8.86462e+07,-68.2043
8.86896e+07,-67.8937
8.87329e+07,-67.6677
8.87763e+07,-68.757
8.88196e+07,-67.1935
8.8863e+07,-67.5444
8.89063e+07,-67.577
8.89496e+07,-67.5117
8.8993e+07,-67.4631
8.90363e+07,-67.8844
8.90797e+07,-67.3189
8.9123e+07,-67.4547
8.91664e+07,-67.9777
8.92097e+07,-68.2294
8.92531e+07,-67.9689
8.92964e+07,-66.625
8.93398e+07,-67.8414
8.93831e+07,-67.9686
8.94265e+07,-67.4863
8.94698e+07,-66.7129
8.95132e+07,-68.7085
8.95565e+07,-68.2815
8.95999e+07,-67.1293
8.96432e+07,-67.5426
8.96866e+07,-68.8206
8.97299e+07,-67.5017
8.97733e+07,-68.0105
8.98166e+07,-67.2618
8.986e+07,-68.2985
8.99033e+07,-68.4598
8.99466e+07,-68.1399
8.999e+07,-67.3167
9.00333e+07,-68.2715
9.00767e+07,-67.9584
9.012e+07,-68.2448
9.01634e+07,-67.9241
9.02067e+07,-68.9141
9.02501e+07,-67.1745
9.02934e+07,-67.7887
9.03368e+07,-69.1457
9.03801e+07,-67.6143
9.04235e+07,-68.6692
9.04668e+07,-68.4133
9.05102e+07,-68.297
9.05535e+07,-68.6503
9.05969e+07,-69.0284
9.06402e+07,-68.0342
9.06836e+07,-68.4851
9.07269e+07,-69.1448
9.07703e+07,-68.2521
9.08136e+07,-69.1937
9.0857e+07,-68.1029
9.09003e+07,-68.6866
9.09436e+07,-68.1462
9.0987e+07,-68.8458
9.10303e+07,-68.1199
9.10737e+07,-68.6769
9.1117e+07,-66.6868
9.11604e+07,-68.26
9.12037e+07,-68.2157
9.12471e+07,-68.4475
9.12904e+07,-68.2685
9.13338e+07,-67.845
9.13771e+07,-67.761
9.14205e+07,-67.9637
9.14638e+07,-68.7131
9.15072e+07,-68.8824
9.15505e+07,-68.6202
9.15939e+07,-67.5054
9.16372e+07,-68.7594
9.16806e+07,-68.8063
9.17239e+07,-67.963
9.17673e+07,-67.5946
9.18106e+07,-68.4191
9.1854e+07,-67.7348
9.18973e+07,-68.1527
9.19406e+07,-68.1701
9.1984e+07,-68.8056
9.20273e+07,-66.5673
9.20707e+07,-67.4315
9.2114e+07,-66.8935
9.21574e+07,-67.8599
9.22007e+07,-68.2133
9.22441e+07,-67.5607
9.22874e+07,-68.4812
9.23308e+07,-67.0918
9.23741e+07,-67.4228
9.24175e+07,-67.5196
9.24608e+07,-67.3505
9.25042e+07,-67.3107
9.25475e+07,-67.1456
9.25909e+07,-67.1377
9.26342e+07,-67.4624
9.26776e+07,-67.8081
9.27209e+07,-66.6903
9.27643e+07,-66.8092
9.28076e+07,-66.16
9.2851e+07,-66.2578
9.28943e+07,-67.0441
9.29376e+07,-66.9674
9.2981e+07,-67.067
9.30243e+07,-64.8404
9.30677e+07,-64.2295
9.3111e+07,-65.536
9.31544e+07,-66.6671
9.31977e+07,-66.1869
9.32411e+07,-65.5616
9.32844e+07,-66.4845
9.33278e+07,-64.9418
9.33711e+07,-66.3982
9.34145e+07,-65.7315
9.34578e+07,-65.7181
9.35012e+07,-66.3836
9.35445e+07,-65.8243
9.35879e+07,-66.8372
9.36312e+07,-66.7177
9.36746e+07,-64.5108
9.37179e+07,-65.3807
9.37613e+07,-66.7026
9.38046e+07,-66.4401
9.38479e+07,-64.989
9.38913e+07,-66.3542
9.39346e+07,-66.9956
9.3978e+07,-66.1572
9.40213e+07,-66.8437
9.40647e+07,-65.6771
9.4108e+07,-67.0643
9.41514e+07,-66.9721
9.41947e+07,-66.4679
9.42381e+07,-65.2721
9.42814e+07,-65.9708
9.43248e+07,-67.7622
9.43681e+07,-67.7205
9.44115e+07,-66.6714
9.44548e+07,-66.1422
9.44982e+07,-67.4418
9.45415e+07,-68.5854
9.45849e+07,-66.3454
9.46282e+07,-68.3763
9.46716e+07,-66.5391
9.47149e+07,-68.4121
9.47583e+07,-68.0157
9.48016e+07,-68.2778
9.48449e+07,-68.1456
9.48883e+07,-68.8458
9.49316e+07,-68.4749
9.4975e+07,-68.7233
9.50183e+07,-69.3727
9.50617e+07,-67.0082
9.5105e+07,-68.6301
9.51484e+07,-69.1341
9.51917e+07,-68.6207
9.52351e+07,-69.1535
9.52784e+07,-70.3399
9.53218e+07,-70.0412
9.53651e+07,-69.9438
9.54085e+07,-69.8369
9.54518e+07,-70.8731
9.54952e+07,-69.7206
9.55385e+07,-70.7777
9.55819e+07,-70.4638
9.56252e+07,-68.5736
9.56686e+07,-70.695
9.57119e+07,-70.7301
9.57553e+07,-71.0537
9.57986e+07,-70.9685
9.58419e+07,-70.2268
9.58853e+07,-71.2013
9.59286e+07,-71.4918
9.5972e+07,-71.3895
9.60153e+07,-72.0213
9.60587e+07,-70.4058
9.6102e+07,-70.8476
9.61454e+07,-71.7786
9.61887e+07,-72.062
9.62321e+07,-71.7784
9.62754e+07,-71.6073
9.63188e+07,-70.4964
9.63621e+07,-71.4395
9.64055e+07,-71.2624
9.64488e+07,-72.0067
9.64922e+07,-71.6985
9.65355e+07,-71.6198
9.65789e+07,-72.5116
9.66222e+07,-71.8575
9.66656e+07,-68.2999
9.67089e+07,-72.4825
9.67523e+07,-71.4898
9.67956e+07,-72.4679
9.68389e+07,-72.2687
9.68823e+07,-72.2406
9.69256e+07,-70.3585
9.6969e+07,-72.2124
9.70123e+07,-71.6316
9.70557e+07,-72.3956
9.7099e+07,-72.6268
9.71424e+07,-72.2399
9.71857e+07,-71.6574
9.72291e+07,-72.0048
9.72724e+07,-72.5534
9.73158e+07,-72.5243
9.73591e+07,-71.4243
9.74025e+07,-71.9771
9.74458e+07,-71.7755
9.74892e+07,-72.4089
9.75325e+07,-72.4661
9.75759e+07,-72.0861
9.76192e+07,-72.1413
9.76626e+07,-71.9088
9.77059e+07,-72.1827
9.77492e+07,-69.7257
9.77926e+07,-72.127
9.78359e+07,-72.4654
9.78793e+07,-72.0442
9.79226e+07,-72.0441
9.7966e+07,-72.21
9.80093e+07,-73.0601
9.80527e+07,-71.9756
9.8096e+07,-72.4935
9.81394e+07,-70.3668
9.81827e+07,-73.1682
9.82261e+07,-71.894
9.82694e+07,-71.5119
9.83128e+07,-72.3641
9.83561e+07,-71.8937
9.83995e+07,-72.3214
9.84428e+07,-70.854
9.84862e+07,-72.1253
9.85295e+07,-70.8061
9.85729e+07,-71.6803
9.86162e+07,-70.8178
9.86596e+07,-72.0698
9.87029e+07,-71.0222
9.87462e+07,-71.485
9.87896e+07,-71.4209
9.88329e+07,-71.8388
9.88763e+07,-71.1321
9.89196e+07,-70.8648
9.8963e+07,-70.687
9.90063e+07,-70.0978
9.90497e+07,-69.8814
9.9093e+07,-70.3759
9.91364e+07,-69.0078
9.91797e+07,-70.1855
9.92231e+07,-70.021
9.92664e+07,-70.3641
9.93098e+07,-70.9843
9.93531e+07,-70.7804
9.93965e+07,-70.4432
9.94398e+07,-70.1077
9.94832e+07,-69.7847
9.95265e+07,-69.2817
9.95699e+07,-70.768
9.96132e+07,-69.7527
9.96566e+07,-68.7589
9.96999e+07,-69.1624
9.97432e+07,-68.5637
9.97866e+07,-68.7492
9.98299e+07,-69.0837
9.98733e+07,-68.545
9.99166e+07,-69.1031
9.996e+07,-67.6407
1.00003e+08,-69.0347
1.00047e+08,-68.0375
1.0009e+08,-67.3321
1.00133e+08,-67.6899
1.00177e+08,-67.8491
1.0022e+08,-66.8438
1.00263e+08,-68.462
1.00307e+08,-67.0417
1.0035e+08,-68.7384
1.00393e+08,-69.2002
1.00437e+08,-68.5712
1.0048e+08,-68.7288
1.00524e+08,-67.5899
1.00567e+08,-68.4431
1.0061e+08,-69.1014
1.00654e+08,-68.4883
1.00697e+08,-69.7081
1.0074e+08,-69.7606
1.00784e+08,-69.3991
1.00827e+08,-70.0934
1.0087e+08,-69.1203
1.00914e+08,-70.5659
1.00957e+08,-70.8838
1.01e+08,-70.508
1.01044e+08,-70.4735
1.01087e+08,-70.2922
1.0113e+08,-70.8355
1.01174e+08,-70.8713
1.01217e+08,-70.8353
1.0126e+08,-71.4022
1.01304e+08,-70.5303
1.01347e+08,-70.7993
1.0139e+08,-71.7793
1.01434e+08,-71.5171
1.01477e+08,-72.7491
1.01521e+08,-72.8087
1.01564e+08,-73.7071
1.01607e+08,-71.5815
1.01651e+08,-72.8083
1.01694e+08,-72.0487
1.01737e+08,-72.3844
1.01781e+08,-72.3132
1.01824e+08,-72.9286
1.01867e+08,-72.6741
1.01911e+08,-73.3483
1.01954e+08,-73.2217
1.01997e+08,-73.1434
1.02041e+08,-72.8374
1.02084e+08,-74.1313
1.02127e+08,-73.2527
1.02171e+08,-73.2369
1.02214e+08,-74.1659
1.02257e+08,-74.0096
1.02301e+08,-73.0498
1.02344e+08,-73.7218
1.02387e+08,-74.4142
1.02431e+08,-73.1892
1.02474e+08,-73.4754
1.02518e+08,-74.078
1.02561e+08,-74.5959
1.02604e+08,-75.1662
1.02648e+08,-73.7378
1.02691e+08,-74.8192
1.02734e+08,-74.235
1.02778e+08,-74.288
1.02821e+08,-73.0948
1.02864e+08,-75.1068
1.02908e+08,-74.9137
1.02951e+08,-74.3589
1.02994e+08,-75.3841
1.03038e+08,-74.0595
1.03081e+08,-73.9904
1.03124e+08,-74.687
1.03168e+08,-74.5029
1.03211e+08,-74.818
1.03254e+08,-74.9128
1.03298e+08,-74.2513
1.03341e+08,-75.2831
1.03384e+08,-74.2334
1.03428e+08,-75.3429
1.03471e+08,-74.484
1.03515e+08,-75.0082
1.03558e+08,-74.1103
1.03601e+08,-75.4637
1.03645e+08,-75.2824
1.03688e+08,-75.711
1.03731e+08,-75.2822
1.03775e+08,-74.4109
1.03818e+08,-74.0059
1.03861e+08,-75.4022
1.03905e+08,-74.0401
1.03948e+08,-74.5375
1.03991e+08,-74.1093
1.04035e+08,-75.1627
1.04078e+08,-75.3013
1.04121e+08,-74.5921
1.04165e+08,-75.2216
1.04208e+08,-75.8575
1.04251e+08,-74.1261
1.04295e+08,-75.3008
1.04338e+08,-75.2014
1.04381e+08,-75.8146
1.04425e+08,-74.5914
1.04468e+08,-74.7398
1.04512e+08,-74.8717
1.04555e+08,-75.1418
1.04598e+08,-74.6835
1.04642e+08,-74.463
1.04685e+08,-73.9182
1.04728e+08,-75.4609
1.04772e+08,-75.3196
1.04815e+08,-74.4264
1.04858e+08,-75.5424
1.04902e+08,-75.2793
1.04945e+08,-75.5627
1.04988e+08,-75.1801
1.05032e+08,-75.8343
1.05075e+08,-73.5016
1.05118e+08,-73.6985
1.05162e+08,-74.6821
1.05205e+08,-73.0582
1.05248e+08,-74.7754
1.05292e+08,-75.5619
1.05335e+08,-74.2464
1.05378e+08,-74.389
1.05422e+08,-75.5822
1.05465e+08,-74.7
1.05509e+08,-74.3349
1.05552e+08,-74.8123
1.05595e+08,-75.0612
1.05639e+08,-75.9397
1.05682e+08,-74.8689
1.05725e+08,-74.1051
1.05769e+08,-75.2375
1.05812e+08,-74.0528
1.05855e+08,-74.8495
1.05899e+08,-75.0995
1.05942e+08,-75.4377
1.05985e+08,-74.6245
1.06029e+08,-75.1579
1.06072e+08,-73.949
1.06115e+08,-72.9945
1.06159e+08,-74.9825
1.06202e+08,-75.1969
1.06245e+08,-75.0016
1.06289e+08,-74.459
1.06332e+08,-74.5317
1.06375e+08,-71.9964
1.06419e+08,-74.0168
1.06462e+08,-74.4044
1.06506e+08,-74.2436
1.06549e+08,-74.6047
1.06592e+08,-73.7282
1.06636e+08,-74.1203
1.06679e+08,-73.9134
1.06722e+08,-73.7279
1.06766e+08,-74.6597
1.06809e+08,-74.2605
1.06852e+08,-74.3316
1.06896e+08,-72.7807
1.06939e+08,-72.5738
1.06982e+08,-72.7209
1.07026e+08,-73.7941
1.07069e+08,-71.9538
1.07112e+08,-72.2721
1.07156e+08,-73.0381
1.07199e+08,-72.7651
1.07242e+08,-71.8185
1.07286e+08,-73.6601
1.07329e+08,-73.1774
1.07372e+08,-72.8698
1.07416e+08,-72.5
1.07459e+08,-73.3509
1.07503e+08,-71.5543
1.07546e+08,-72.7048
1.07589e+08,-72.5431
1.07633e+08,-73.7091
1.07676e+08,-73.006
1.07719e+08,-73.3663
1.07763e+08,-73.0829
1.07806e+08,-73.2076
1.07849e+08,-74.1699
1.07893e+08,-73.7753
1.07936e+08,-72.6742
1.07979e+08,-73.1758
1.08023e+08,-74.0129
1.08066e+08,-73.8422
1.08109e+08,-73.6416
1.08153e+08,-73.082
1.08196e+08,-74.1515
1.08239e+08,-74.6561
1.08283e+08,-73.9608
1.08326e+08,-75.2512
1.08369e+08,-73.9605
1.08413e+08,-74.472
1.08456e+08,-75.0349
1.08499e+08,-74.1158
1.08543e+08,-74.221
1.08586e+08,-74.9574
1.0863e+08,-74.2031
1.08673e+08,-75.1319
1.08716e+08,-75.0927
1.0876e+08,-75.1121
1.08803e+08,-73.2999
1.08846e+08,-74.5623
1.0889e+08,-75.4713
1.08933e+08,-75.512
1.08976e+08,-75.1508
1.0902e+08,-75.4506
1.09063e+08,-74.9948
1.09106e+08,-75.0722
1.0915e+08,-74.1317
1.09193e+08,-75.4502
1.09236e+08,-75.2689
1.0928e+08,-74.6722
1.09323e+08,-75.9523
1.09366e+08,-75.3889
1.0941e+08,-75.9737
1.09453e+08,-76.5083
1.09496e+08,-76.4167
1.0954e+08,-75.3683
1.09583e+08,-76.2588
1.09627e+08,-76.1478
1.0967e+08,-75.8871
1.09713e+08,-75.2478
1.09757e+08,-75.7805
1.098e+08,-75.7804
1.09843e+08,-76.5997
1.09887e+08,-76.0594
1.0993e+08,-75.1485
1.09973e+08,-76.3929
1.10017e+08,-76.5299
1.1006e+08,-76.059
1.10103e+08,-76.438
1.10147e+08,-76.6924
1.1019e+08,-76.6455
1.10233e+08,-75.4477
1.10277e+08,-75.2465
1.1032e+08,-76.4147
1.10363e+08,-75.1082
1.10407e+08,-75.779
1.1045e+08,-76.7861
1.10493e+08,-77.1742
1.10537e+08,-76.3915
1.1058e+08,-76.9535
1.10624e+08,-76.3235
1.10667e+08,-76.6911
1.1071e+08,-76.4366
1.10754e+08,-75.6731
1.10797e+08,-77.0015
1.1084e+08,-76.1009
1.10884e+08,-75.9918
1.10927e+08,-76.9769
1.1097e+08,-76.8563
1.11014e+08,-76.6202
1.11057e+08,-76.8084
1.111e+08,-76.8083
1.11144e+08,-76.3223
1.11187e+08,-76.3673
1.1123e+08,-75.6511
1.11274e+08,-76.8556
1.11317e+08,-75.3842
1.1136e+08,-76.9758
1.11404e+08,-77.1226
1.11447e+08,-75.9257
1.1149e+08,-75.7552
1.11534e+08,-76.2318
1.11577e+08,-76.1873
1.11621e+08,-76.1429
1.11664e+08,-76.5259
1.11707e+08,-76.1869
1.11751e+08,-75.8181
1.11794e+08,-75.9679
1.11837e+08,-76.0766
1.11881e+08,-76.2756
1.11924e+08,-75.6912
1.11967e+08,-76.2085
1.12011e+08,-76.1862
1.12054e+08,-75.8174
1.12097e+08,-75.1827
1.12141e+08,-75.8384
1.12184e+08,-74.9104
1.12227e+08,-76.2079
1.12271e+08,-77.0958
1.12314e+08,-76.342
1.12357e+08,-76.2298
1.12401e+08,-75.3212
1.12444e+08,-75.9448
1.12487e+08,-75.8803
1.12531e+08,-75.8375
1.12574e+08,-76.0529
1.12618e+08,-76.3638
1.12661e+08,-76.2068
1.12704e+08,-76.8282
1.12748e+08,-76.2735
1.12791e+08,-74.8898
1.12834e+08,-74.9472
1.12878e+08,-76.0959
1.12921e+08,-76.0739
1.12964e+08,-75.6887
1.13008e+08,-77.193
1.13051e+08,-74.4246
1.13094e+08,-75.6884
1.13138e+08,-76.8511
1.13181e+08,-75.0624
1.13224e+08,-76.2948
1.13268e+08,-76.4761
1.13311e+08,-76.522
1.13354e+08,-74.6252
1.13398e+08,-76.6377
1.13441e+08,-76.3845
1.13484e+08,-76.4299
1.13528e+08,-75.7293
1.13571e+08,-76.3615
1.13615e+08,-75.7291
1.13658e+08,-77.1666
1.13701e+08,-76.7073
1.13745e+08,-75.9632
1.13788e+08,-76.1157
1.13831e+08,-75.9199
1.13875e+08,-76.028
1.13918e+08,-76.2038
1.13961e+08,-76.2037
1.14005e+08,-76.1593
1.14048e+08,-75.8126
1.14091e+08,-76.0711
1.14135e+08,-76.5431
1.14178e+08,-75.8335
1.14221e+08,-75.7909
1.14265e+08,-75.2568
1.14308e+08,-75.4378
1.14351e+08,-76.0268
1.14395e+08,-76.0923
1.14438e+08,-76.6821
1.14481e+08,-74.6225
1.14525e+08,-76.1359
1.14568e+08,-76.1358
1.14612e+08,-76.1578
1.14655e+08,-74.8282
1.14698e+08,-76.4042
1.14742e+08,-75.3558
1.14785e+08,-73.9451
1.14828e+08,-75.939
1.14872e+08,-74.5478
1.14915e+08,-76.113
1.14958e+08,-75.4975
1.15002e+08,-76.541
1.15045e+08,-75.7467
1.15088e+08,-76.1788
1.15132e+08,-75.7676
1.15175e+08,-75.7675
1.15218e+08,-76.3802
1.15262e+08,-77.138
1.15305e+08,-76.3348
1.15348e+08,-76.4254
1.15392e+08,-75.3542
1.15435e+08,-76.0242
1.15478e+08,-75.0959
1.15522e+08,-76.2445
1.15565e+08,-75.9805
1.15609e+08,-76.3115
1.15652e+08,-75.6196
1.15695e+08,-75.7241
1.15739e+08,-75.7661
1.15782e+08,-76.941
1.15825e+08,-76.6319
1.15869e+08,-76.0668
1.15912e+08,-76.3786
1.15955e+08,-76.4696
1.15999e+08,-75.8291
1.16042e+08,-76.5848
1.16085e+08,-76.5615
1.16129e+08,-76.4463
1.16172e+08,-75.7229
1.16215e+08,-75.5975
1.16259e+08,-76.0005
1.16302e+08,-76.1759
1.16345e+08,-76.8673
1.16389e+08,-75.7857
1.16432e+08,-76.8911
1.16475e+08,-76.0435
1.16519e+08,-75.5968
1.16562e+08,-76.4453
1.16606e+08,-75.7008
1.16649e+08,-77.6442
1.16692e+08,-76.7237
1.16736e+08,-76.0866
1.16779e+08,-75.7214
1.16822e+08,-75.8484
1.16866e+08,-75.3105
1.16909e+08,-76.1302
1.16952e+08,-76.7231
1.16996e+08,-76.8179
1.17039e+08,-76.2408
1.17082e+08,-76.5129
1.17126e+08,-75.4923
1.17169e+08,-75.8476
1.17212e+08,-77.0593
1.17256e+08,-76.4208
1.17299e+08,-76.4893
1.17342e+08,-76.1734
1.17386e+08,-75.9329
1.17429e+08,-76.6514
1.17472e+08,-77.3837
1.17516e+08,-75.9975
1.17559e+08,-76.5348
1.17603e+08,-76.8883
1.17646e+08,-74.8591
1.17689e+08,-76.7213
1.17733e+08,-76.3969
1.17776e+08,-76.3288
1.17819e+08,-77.1318
1.17863e+08,-77.0088
1.17906e+08,-75.2082
1.17949e+08,-76.6034
1.17993e+08,-77.8535
1.18036e+08,-77.4078
1.18079e+08,-75.9528
1.18123e+08,-76.1715
1.18166e+08,-75.8452
1.18209e+08,-76.238
1.18253e+08,-75.5926
1.18296e+08,-76.6963
1.18339e+08,-76.7908
1.18383e+08,-76.3726
1.18426e+08,-76.2822
1.18469e+08,-75.6336
1.18513e+08,-76.1263
1.18556e+08,-75.9733
1.186e+08,-75.6333
1.18643e+08,-76.104
1.18686e+08,-75.5296
1.1873e+08,-76.4401
1.18773e+08,-77.2291
1.18816e+08,-75.9726
1.1886e+08,-75.8435
1.18903e+08,-76.6245
1.18946e+08,-76.1253
1.1899e+08,-77.0061
1.19033e+08,-75.9938
1.19076e+08,-76.8368
1.1912e+08,-77.1287
1.19163e+08,-75.8428
1.19206e+08,-76.5078
1.1925e+08,-74.8552
1.19293e+08,-76.3477
1.19336e+08,-76.4158
1.1938e+08,-76.8122
1.19423e+08,-77.1776
1.19466e+08,-75.8208
1.1951e+08,-76.1681
1.19553e+08,-76.9804
1.19597e+08,-75.1252
1.1964e+08,-74.95
1.19683e+08,-76.576
1.19727e+08,-76.0357
1.1977e+08,-76.8112
1.19813e+08,-76.8111
1.19857e+08,-76.907
1.199e+08,-77.1021
1.19943e+08,-75.7771
1.19987e+08,-77.1513
1.2003e+08,-76.4828
1.20073e+08,-76.7867
1.20117e+08,-76.1667
1.2016e+08,-76.0346
1.20203e+08,-76.278
1.20247e+08,-77.2506
1.2029e+08,-77.2004
1.20333e+08,-76.2329
1.20377e+08,-77.4534
1.2042e+08,-75.4231
1.20463e+08,-76.9539
1.20507e+08,-76.3675
1.2055e+08,-77.1998
1.20594e+08,-76.4356
1.20637e+08,-75.9683
1.2068e+08,-76.3218
1.20724e+08,-76.8089
1.20767e+08,-75.9463
1.2081e+08,-76.2317
1.20854e+08,-76.6198
1.20897e+08,-75.4832
1.2094e+08,-76.5036
1.20984e+08,-76.4575
1.21027e+08,-77.0994
1.2107e+08,-76.3661
1.21114e+08,-76.2758
1.21157e+08,-76.7366
1.212e+08,-75.6898
1.21244e+08,-76.343
1.21287e+08,-76.6655
1.2133e+08,-76.7598
1.21374e+08,-76.6419
1.21417e+08,-76.3426
1.2146e+08,-76.6651
1.21504e+08,-76.3424
1.21547e+08,-76.4791
1.21591e+08,-76.2522
1.21634e+08,-76.0529
1.21677e+08,-76.6178
1.21721e+08,-75.199
1.21764e+08,-74.0317
1.21807e+08,-76.975
1.21851e+08,-76.9263
1.21894e+08,-77.0973
1.21937e+08,-77.3729
1.21981e+08,-75.9003
1.22024e+08,-76.3638
1.22067e+08,-76.7107
1.22111e+08,-76.6636
1.22154e+08,-77.347
1.22197e+08,-76.9013
1.22241e+08,-76.4774
1.22284e+08,-75.439
1.22327e+08,-75.7081
1.22371e+08,-76.9251
1.22414e+08,-75.8992
1.22457e+08,-75.5205
1.22501e+08,-76.8285
1.22544e+08,-76.4997
1.22588e+08,-76.2947
1.22631e+08,-77.3712
1.22674e+08,-76.8761
1.22718e+08,-76.0503
1.22761e+08,-76.8759
1.22804e+08,-76.3393
1.22848e+08,-76.6383
1.22891e+08,-76.9238
1.22934e+08,-76.9237
1.22978e+08,-77.5506
1.23021e+08,-76.2264
1.23064e+08,-76.3613
1.23108e+08,-76.591
1.23151e+08,-76.4753
1.23194e+08,-76.3383
1.23238e+08,-76.8267
1.23281e+08,-76.4979
1.23324e+08,-76.6372
1.23368e+08,-76.0926
1.23411e+08,-76.1366
1.23454e+08,-75.4976
1.23498e+08,-75.6424
1.23541e+08,-76.3829
1.23585e+08,-76.3148
1.23628e+08,-75.832
1.23671e+08,-76.2025
1.23715e+08,-76.9704
1.23758e+08,-75.4151
1.23801e+08,-76.6595
1.23845e+08,-76.4506
1.23888e+08,-76.8491
1.23931e+08,-76.1354
1.23975e+08,-76.5425
1.24018e+08,-77.2164
1.24061e+08,-77.2917
1.24105e+08,-75.9167
1.24148e+08,-76.7768
1.24191e+08,-75.9165
1.24235e+08,-76.2907
1.24278e+08,-77.6521
1.24321e+08,-76.1787
1.24365e+08,-76.8961
1.24408e+08,-76.8239
1.24451e+08,-76.8959
1.24495e+08,-76.2006
1.24538e+08,-76.8476
1.24582e+08,-76.3124
1.24625e+08,-76.8234
1.24668e+08,-76.5177
1.24712e+08,-76.5176
1.24755e+08,-76.7516
1.24798e+08,-76.4026
1.24842e+08,-75.5147
1.24885e+08,-76.919
1.24928e+08,-75.8503
1.24972e+08,-76.3115
1.25015e+08,-75.1318
1.25058e+08,-74.937
1.25102e+08,-75.9792
1.25145e+08,-75.9574
1.25188e+08,-76.7032
1.25232e+08,-76.4244
1.25275e+08,-75.555
1.25318e+08,-76.2656
1.25362e+08,-77.2886
1.25405e+08,-76.6088
1.25448e+08,-76.9906
1.25492e+08,-76.0218
1.25535e+08,-76.4008
1.25579e+08,-75.978
1.25622e+08,-77.5964
1.25665e+08,-75.7846
1.25709e+08,-76.8929
1.25752e+08,-76.7968
1.25795e+08,-75.616
1.25839e+08,-75.5743
1.25882e+08,-75.9773
1.25925e+08,-76.9407
1.25969e+08,-76.5377
1.26012e+08,-76.9892
1.26055e+08,-76.892
1.26099e+08,-75.9768
1.26142e+08,-76.0859
1.26185e+08,-77.3373
1.26229e+08,-77.0376
1.26272e+08,-75.847
1.26315e+08,-76.2632
1.26359e+08,-76.1516
1.26402e+08,-76.5135
1.26445e+08,-76.1514
1.26489e+08,-77.0862
1.26532e+08,-76.4671
1.26576e+08,-76.2626
1.26619e+08,-76.8426
1.26662e+08,-76.6058
1.26706e+08,-76.2623
1.26749e+08,-75.7819
1.26792e+08,-76.5357
1.26836e+08,-77.0607
1.26879e+08,-77.5412
1.26922e+08,-76.4662
1.26966e+08,-77.6193
1.27009e+08,-76.3292
1.27052e+08,-76.8655
1.27096e+08,-76.0836
1.27139e+08,-76.7935
1.27182e+08,-77.0108
1.27226e+08,-75.3056
1.27269e+08,-77.1587
1.27312e+08,-75.7171
1.27356e+08,-76.5343
1.27399e+08,-76.4192
1.27442e+08,-76.3735
1.27486e+08,-74.703
1.27529e+08,-76.2155
1.27573e+08,-76.4416
1.27616e+08,-76.8162
1.27659e+08,-75.5286
1.27703e+08,-75.5285
1.27746e+08,-76.1262
1.27789e+08,-77.2073
1.27833e+08,-77.0583
1.27876e+08,-75.4869
1.27919e+08,-76.8876
1.27963e+08,-76.7915
1.28006e+08,-76.5096
1.28049e+08,-76.3266
1.28093e+08,-76.4175
1.28136e+08,-76.3491
1.28179e+08,-75.3436
1.28223e+08,-76.5554
1.28266e+08,-77.1812
1.28309e+08,-76.7193
1.28353e+08,-76.9349
1.28396e+08,-77.5375
1.28439e+08,-76.719
1.28483e+08,-76.6482
1.28526e+08,-75.5265
1.2857e+08,-76.5546
1.28613e+08,-77.0074
1.28656e+08,-76.3478
1.287e+08,-76.3025
1.28743e+08,-76.3931
1.28786e+08,-75.5672
1.2883e+08,-76.7418
1.28873e+08,-77.1548
1.28916e+08,-76.5538
1.2896e+08,-77.031
1.29003e+08,-76.8128
1.29046e+08,-77.0063
1.2909e+08,-74.9658
1.29133e+08,-77.5879
1.29176e+08,-77.2542
1.2922e+08,-76.1005
1.29263e+08,-77.0549
1.29306e+08,-75.9042
1.2935e+08,-77.1536
1.29393e+08,-77.5873
1.29436e+08,-76.3914
1.2948e+08,-76.5757
1.29523e+08,-77.2785
1.29567e+08,-76.6456
1.2961e+08,-75.8819
1.29653e+08,-75.2797
1.29697e+08,-76.188
1.2974e+08,-76.3226
1.29783e+08,-76.5053
1.29827e+08,-76.4822
1.2987e+08,-76.6684
1.29913e+08,-76.5979
1.29957e+08,-76.1208
1.3e+08,-76.165
