FileType,0
Number of Points,3000
Sweep Time,3e+08
Start Frequency,0
Stop Frequency,1.3e+08
Average Count,1
Average Type,0
RBW,10000
RBW Filter,0
RBW Filter BW,0
VBW,10000
Sweep Type,0
X Axis Scale,1
PreAmp State,0
Trigger Source,0
Trigger Level,-25
Trigger Edge,0
Trigger Delay Switch,0
Trigger Delay,1
Attenuation,20
Ref Level Offset,0
External Gain,0
Trace Type,0
Detector,0
Trace Math,5
Trace Math Oper1,4
Trace Math Oper2,5
Trace Math Offset,0
Trace Name,0
Full Span,1.3e+08
Y Axis Unit,0
DATA,
0,-16.5443
43347.8,-63.0909
86695.6,-36.8511
130043,-37.2412
173391,-47.2528
216739,-48.3826
260087,-47.4225
303434,-50.2002
346782,-51.7595
390130,-52.6415
433478,-56.4964
476826,-61.2246
520173,-64.3731
563521,-68.0065
606869,-69.3242
650217,-71.1163
693565,-71.3196
736912,-71.2376
780260,-73.0191
823608,-72.7965
866956,-73.5877
910303,-72.8944
953651,-70.2366
996999,-70.7995
1.04035e+06,-72.6739
1.08369e+06,-73.042
1.12704e+06,-72.1137
1.17039e+06,-73.8561
1.21374e+06,-70.9923
1.25709e+06,-70.815
1.30043e+06,-71.7794
1.34378e+06,-72.0658
1.38713e+06,-68.3584
1.43048e+06,-70.0505
1.47382e+06,-63.1821
1.51717e+06,-63.0932
1.56052e+06,-59.8771
1.60387e+06,-58.2461
1.64722e+06,-59.987
1.69056e+06,-59.9141
1.73391e+06,-67.53
1.77726e+06,-69.3452
1.82061e+06,-71.044
1.86395e+06,-72.3094
1.9073e+06,-72.3088
1.95065e+06,-70.2782
1.994e+06,-72.1022
2.03735e+06,-72.1026
2.08069e+06,-71.7923
2.12404e+06,-73.1058
2.16739e+06,-69.1157
2.21074e+06,-71.326
2.25408e+06,-69.3097
2.29743e+06,-67.303
2.34078e+06,-68.3357
2.38413e+06,-69.2768
2.42748e+06,-68.755
2.47082e+06,-71.305
2.51417e+06,-71.3256
2.55752e+06,-71.77
2.60087e+06,-72.4941
2.64421e+06,-71.3461
2.68756e+06,-71.8352
2.73091e+06,-71.5341
2.77426e+06,-71.3666
2.81761e+06,-72.3071
2.86095e+06,-70.7658
2.9043e+06,-71.408
2.94765e+06,-70.9416
2.991e+06,-70.9218
3.03434e+06,-71.121
3.07769e+06,-71.1816
3.12104e+06,-70.7077
3.16439e+06,-70.4054
3.20774e+06,-69.5405
3.25108e+06,-69.003
3.29443e+06,-69.9006
3.33778e+06,-69.7788
3.38113e+06,-69.4734
3.42447e+06,-69.4234
3.46782e+06,-69.9179
3.51117e+06,-69.6926
3.55452e+06,-69.2266
3.59787e+06,-69.3243
3.64121e+06,-67.9759
3.68456e+06,-68.9238
3.72791e+06,-69.7266
3.77126e+06,-69.865
3.8146e+06,-69.6411
3.85795e+06,-69.4894
3.9013e+06,-70.3306
3.94465e+06,-70.0588
3.988e+06,-69.7435
4.03134e+06,-65.8457
4.07469e+06,-69.1936
4.11804e+06,-69.3729
4.16139e+06,-68.5106
4.20473e+06,-68.5555
4.24808e+06,-69.726
4.29143e+06,-68.3186
4.33478e+06,-69.6404
4.37813e+06,-69.7774
4.42147e+06,-68.0879
4.46482e+06,-68.7064
4.50817e+06,-69.0807
4.55152e+06,-69.4552
4.59486e+06,-68.3621
4.63821e+06,-69.1928
4.68156e+06,-69.5891
4.72491e+06,-69.674
4.76826e+06,-69.505
4.8116e+06,-68.86
4.85495e+06,-68.8755
4.8983e+06,-68.7518
4.94165e+06,-68.7825
4.98499e+06,-69.2898
5.02834e+06,-68.9221
5.07169e+06,-69.3552
5.11504e+06,-67.8348
5.15839e+06,-68.5843
5.20173e+06,-69.1599
5.24508e+06,-68.1439
5.28843e+06,-68.5992
5.33178e+06,-68.554
5.37513e+06,-68.8283
5.41847e+06,-68.9216
5.46182e+06,-68.7972
5.50517e+06,-69.224
5.54852e+06,-69.0953
5.59186e+06,-68.1865
5.63521e+06,-67.9874
5.67856e+06,-67.3638
5.72191e+06,-67.6564
5.76526e+06,-65.8435
5.8086e+06,-67.0048
5.85195e+06,-69.4037
5.8953e+06,-68.6893
5.93865e+06,-67.3373
5.98199e+06,-68.4488
6.02534e+06,-67.5084
6.06869e+06,-66.9794
6.11204e+06,-68.583
6.15539e+06,-68.4634
6.19873e+06,-68.2145
6.24208e+06,-67.3761
6.28543e+06,-67.9866
6.32878e+06,-67.9305
6.37212e+06,-67.7919
6.41547e+06,-68.6887
6.45882e+06,-68.0995
6.50217e+06,-67.4283
6.54552e+06,-67.1049
6.58886e+06,-67.6688
6.63221e+06,-66.7441
6.67556e+06,-67.8605
6.71891e+06,-67.1301
6.76225e+06,-67.2068
6.8056e+06,-66.1097
6.84895e+06,-66.9909
6.8923e+06,-66.5868
6.93565e+06,-67.5339
6.97899e+06,-66.9908
7.02234e+06,-66.5866
7.06569e+06,-67.1679
7.10904e+06,-67.1935
7.15238e+06,-66.953
7.19573e+06,-66.3155
7.23908e+06,-66.1888
7.28243e+06,-66.4321
7.32578e+06,-66.3852
7.36912e+06,-67.0279
7.41247e+06,-65.6352
7.45582e+06,-65.7105
7.49917e+06,-65.2882
7.54251e+06,-65.3398
7.58586e+06,-66.0523
7.62921e+06,-66.4788
7.67256e+06,-66.55
7.71591e+06,-66.682
7.75925e+06,-66.373
7.8026e+06,-65.9959
7.84595e+06,-66.1538
7.8893e+06,-64.8262
7.93264e+06,-66.0406
7.97599e+06,-66.6214
8.01934e+06,-66.3726
8.06269e+06,-65.8956
8.10604e+06,-66.8279
8.14938e+06,-66.2105
8.19273e+06,-65.8623
8.23608e+06,-65.3389
8.27943e+06,-66.3025
8.32277e+06,-65.9729
8.36612e+06,-65.6662
8.40947e+06,-66.6569
8.45282e+06,-65.4955
8.49617e+06,-65.2766
8.53951e+06,-66.3953
8.58286e+06,-66.1528
8.62621e+06,-66.7659
8.66956e+06,-65.8068
8.7129e+06,-64.884
8.75625e+06,-65.3486
8.7996e+06,-64.6989
8.84295e+06,-66.1184
8.8863e+06,-66.0281
8.92964e+06,-65.6011
8.97299e+06,-65.8283
9.01634e+06,-65.0424
9.05969e+06,-65.2965
9.10303e+06,-65.4631
9.14638e+06,-65.9719
9.18973e+06,-66.3828
9.23308e+06,-65.6114
9.27643e+06,-65.4
9.31977e+06,-65.5579
9.36312e+06,-66.4648
9.40647e+06,-65.9493
9.44982e+06,-66.0499
9.49316e+06,-65.4942
9.53651e+06,-65.1021
9.57986e+06,-65.3372
9.62321e+06,-66.4999
9.66656e+06,-66.0947
9.7099e+06,-66.5354
9.75325e+06,-64.717
9.7966e+06,-65.1726
9.83995e+06,-64.6976
9.88329e+06,-64.9814
9.92664e+06,-66.3468
9.96999e+06,-65.2541
1.00133e+07,-66.2078
1.00567e+07,-66.381
1.01e+07,-64.7543
1.01434e+07,-65.2835
1.01867e+07,-66.0699
1.02301e+07,-65.8579
1.02734e+07,-65.47
1.03168e+07,-66.4967
1.03601e+07,-64.5226
1.04035e+07,-66.4487
1.04468e+07,-65.4792
1.04902e+07,-66.0225
1.05335e+07,-66.5305
1.05769e+07,-66.0219
1.06202e+07,-65.8328
1.06636e+07,-66.4113
1.07069e+07,-65.8651
1.07503e+07,-64.8075
1.07936e+07,-65.4764
1.08369e+07,-66.5163
1.08803e+07,-64.8358
1.09236e+07,-66.235
1.0967e+07,-65.308
1.10103e+07,-65.6989
1.10537e+07,-63.9507
1.1097e+07,-64.5546
1.11404e+07,-65.7304
1.11837e+07,-65.2035
1.12271e+07,-63.9052
1.12704e+07,-65.3678
1.13138e+07,-65.8273
1.13571e+07,-65.2431
1.14005e+07,-65.567
1.14438e+07,-65.4082
1.14872e+07,-65.7168
1.15305e+07,-64.1618
1.15739e+07,-65.5763
1.16172e+07,-65.9354
1.16606e+07,-66.1148
1.17039e+07,-65.5114
1.17472e+07,-65.1786
1.17906e+07,-64.1961
1.18339e+07,-65.4681
1.18773e+07,-65.7354
1.19206e+07,-65.5629
1.1964e+07,-65.6485
1.20073e+07,-64.2812
1.20507e+07,-65.0353
1.2094e+07,-64.8998
1.21374e+07,-63.3101
1.21807e+07,-64.0023
1.22241e+07,-64.6973
1.22674e+07,-64.4554
1.23108e+07,-64.1341
1.23541e+07,-64.3174
1.23975e+07,-64.7249
1.24408e+07,-65.8462
1.24842e+07,-64.1868
1.25275e+07,-63.6045
1.25709e+07,-63.3467
1.26142e+07,-64.7754
1.26576e+07,-64.7064
1.27009e+07,-64.3703
1.27442e+07,-63.4341
1.27876e+07,-63.999
1.28309e+07,-64.0727
1.28743e+07,-64.7395
1.29176e+07,-64.5972
1.2961e+07,-62.4637
1.30043e+07,-64.8891
1.30477e+07,-63.7589
1.3091e+07,-63.774
1.31344e+07,-63.8822
1.31777e+07,-63.8147
1.32211e+07,-64.2097
1.32644e+07,-63.9127
1.33078e+07,-63.2264
1.33511e+07,-62.9094
1.33945e+07,-64.3118
1.34378e+07,-64.0271
1.34812e+07,-63.1631
1.35245e+07,-52.4018
1.35679e+07,-51.9786
1.36112e+07,-63.3021
1.36546e+07,-62.9217
1.36979e+07,-63.781
1.37412e+07,-63.4682
1.37846e+07,-62.8423
1.38279e+07,-62.3147
1.38713e+07,-60.8751
1.39146e+07,-62.3664
1.3958e+07,-63.6018
1.40013e+07,-61.9071
1.40447e+07,-62.618
1.4088e+07,-63.1359
1.41314e+07,-63.7735
1.41747e+07,-63.2362
1.42181e+07,-63.5803
1.42614e+07,-63.4555
1.43048e+07,-63.3912
1.43481e+07,-63.9172
1.43915e+07,-62.0469
1.44348e+07,-64.0006
1.44782e+07,-62.2636
1.45215e+07,-63.9686
1.45649e+07,-62.9962
1.46082e+07,-64.1538
1.46516e+07,-63.603
1.46949e+07,-64.5932
1.47382e+07,-63.4876
1.47816e+07,-64.1101
1.48249e+07,-62.5914
1.48683e+07,-64.2875
1.49116e+07,-64.2872
1.4955e+07,-63.2416
1.49983e+07,-62.9284
1.50417e+07,-63.2315
1.5085e+07,-63.5056
1.51284e+07,-62.9557
1.51717e+07,-64.6699
1.52151e+07,-65.2767
1.52584e+07,-64.34
1.53018e+07,-65.143
1.53451e+07,-63.7107
1.53885e+07,-64.0165
1.54318e+07,-64.064
1.54752e+07,-64.5048
1.55185e+07,-63.864
1.55619e+07,-64.5998
1.56052e+07,-63.968
1.56485e+07,-64.5206
1.56919e+07,-64.3157
1.57352e+07,-64.6612
1.57786e+07,-64.3591
1.58219e+07,-62.7991
1.58653e+07,-64.5083
1.59086e+07,-64.7002
1.5952e+07,-64.609
1.59953e+07,-64.902
1.60387e+07,-63.7325
1.6082e+07,-65.4073
1.61254e+07,-64.8547
1.61687e+07,-65.2533
1.62121e+07,-63.7674
1.62554e+07,-64.4894
1.62988e+07,-65.03
1.63421e+07,-64.4112
1.63855e+07,-64.8242
1.64288e+07,-65.1069
1.64722e+07,-64.4548
1.65155e+07,-64.8584
1.65589e+07,-64.5606
1.66022e+07,-65.0641
1.66455e+07,-65.605
1.66889e+07,-65.2626
1.67322e+07,-65.1412
1.67756e+07,-65.25
1.68189e+07,-63.8414
1.68623e+07,-64.909
1.69056e+07,-64.7579
1.6949e+07,-64.077
1.69923e+07,-64.2596
1.70357e+07,-64.5131
1.7079e+07,-64.5297
1.71224e+07,-64.826
1.71657e+07,-63.4893
1.72091e+07,-64.9072
1.72524e+07,-64.4673
1.72958e+07,-64.3784
1.73391e+07,-64.9652
1.73825e+07,-65.4313
1.74258e+07,-64.8244
1.74692e+07,-63.2231
1.75125e+07,-64.0103
1.75559e+07,-64.4101
1.75992e+07,-64.1322
1.76425e+07,-65.0228
1.76859e+07,-65.2389
1.77292e+07,-65.1841
1.77726e+07,-64.1904
1.78159e+07,-64.3536
1.78593e+07,-65.0871
1.79026e+07,-64.4693
1.7946e+07,-64.408
1.79893e+07,-64.0927
1.80327e+07,-63.9443
1.8076e+07,-65.0501
1.81194e+07,-63.3167
1.81627e+07,-64.0864
1.82061e+07,-64.335
1.82494e+07,-63.4388
1.82928e+07,-63.5682
1.83361e+07,-63.7713
1.83795e+07,-63.4332
1.84228e+07,-63.776
1.84662e+07,-62.9657
1.85095e+07,-64.1864
1.85529e+07,-63.6476
1.85962e+07,-64.0574
1.86395e+07,-63.7082
1.86829e+07,-64.041
1.87262e+07,-64.4204
1.87696e+07,-62.9406
1.88129e+07,-64.1686
1.88563e+07,-62.7643
1.88996e+07,-63.3859
1.8943e+07,-64.3915
1.89863e+07,-63.5644
1.90297e+07,-63.0901
1.9073e+07,-61.8137
1.91164e+07,-62.9387
1.91597e+07,-63.2285
1.92031e+07,-63.7512
1.92464e+07,-63.6337
1.92898e+07,-62.8125
1.93331e+07,-63.0174
1.93765e+07,-63.3098
1.94198e+07,-63.7449
1.94632e+07,-61.669
1.95065e+07,-63.2848
1.95498e+07,-62.9317
1.95932e+07,-63.8212
1.96365e+07,-64.3163
1.96799e+07,-63.4757
1.97232e+07,-63.6311
1.97666e+07,-63.7123
1.98099e+07,-64.0137
1.98533e+07,-63.7169
1.98966e+07,-62.4305
1.994e+07,-62.9063
1.99833e+07,-62.8272
2.00267e+07,-63.4939
2.007e+07,-62.1648
2.01134e+07,-62.9946
2.01567e+07,-63.7054
2.02001e+07,-64.1508
2.02434e+07,-63.4931
2.02868e+07,-63.2811
2.03301e+07,-63.0221
2.03735e+07,-62.9984
2.04168e+07,-63.9217
2.04602e+07,-64.2146
2.05035e+07,-62.2104
2.05468e+07,-64.1227
2.05902e+07,-63.6936
2.06335e+07,-63.0636
2.06769e+07,-64.0901
2.07202e+07,-63.4417
2.07636e+07,-63.7339
2.08069e+07,-62.547
2.08503e+07,-64.494
2.08936e+07,-63.7181
2.0937e+07,-63.2303
2.09803e+07,-63.1147
2.10237e+07,-64.4265
2.1067e+07,-63.1767
2.11104e+07,-63.9035
2.11537e+07,-63.7891
2.11971e+07,-63.5799
2.12404e+07,-63.763
2.12838e+07,-63.229
2.13271e+07,-63.1278
2.13705e+07,-63.9131
2.14138e+07,-64.5651
2.14572e+07,-63.3994
2.15005e+07,-62.7436
2.15438e+07,-61.894
2.15872e+07,-63.0507
2.16305e+07,-63.0174
2.16739e+07,-63.5129
2.17172e+07,-64.4296
2.17606e+07,-62.8857
2.18039e+07,-63.8023
2.18473e+07,-63.6585
2.18906e+07,-64.586
2.1934e+07,-63.2073
2.19773e+07,-63.3336
2.20207e+07,-63.3482
2.2064e+07,-63.0111
2.21074e+07,-63.8115
2.21507e+07,-64.1977
2.21941e+07,-63.2548
2.22374e+07,-64.5847
2.22808e+07,-64.4665
2.23241e+07,-65.0255
2.23675e+07,-63.8886
2.24108e+07,-64.3166
2.24542e+07,-63.9406
2.24975e+07,-64.3328
2.25408e+07,-64.3162
2.25842e+07,-63.9876
2.26275e+07,-64.5101
2.26709e+07,-64.1311
2.27142e+07,-63.39
2.27576e+07,-62.6254
2.28009e+07,-64.6338
2.28443e+07,-63.6194
2.28876e+07,-64.4699
2.2931e+07,-65.0114
2.29743e+07,-63.7825
2.30177e+07,-63.7053
2.3061e+07,-63.7719
2.31044e+07,-64.7357
2.31477e+07,-64.0972
2.31911e+07,-64.1777
2.32344e+07,-63.4029
2.32778e+07,-63.5322
2.33211e+07,-64.0379
2.33645e+07,-64.2422
2.34078e+07,-62.7367
2.34512e+07,-63.7757
2.34945e+07,-64.3678
2.35378e+07,-63.8323
2.35812e+07,-64.6139
2.36245e+07,-63.9733
2.36679e+07,-64.682
2.37112e+07,-64.1489
2.37546e+07,-63.5254
2.37979e+07,-63.0951
2.38413e+07,-64.339
2.38846e+07,-64.116
2.3928e+07,-64.3828
2.39713e+07,-63.9879
2.40147e+07,-64.4939
2.4058e+07,-63.8252
2.41014e+07,-63.5947
2.41447e+07,-64.3931
2.41881e+07,-63.6146
2.42314e+07,-63.0554
2.42748e+07,-63.9762
2.43181e+07,-63.9866
2.43615e+07,-63.6546
2.44048e+07,-62.0091
2.44481e+07,-63.7772
2.44915e+07,-64.0603
2.45348e+07,-61.6985
2.45782e+07,-62.4755
2.46215e+07,-63.2315
2.46649e+07,-62.8799
2.47082e+07,-64.4244
2.47516e+07,-62.7778
2.47949e+07,-63.7708
2.48383e+07,-63.1009
2.48816e+07,-62.386
2.4925e+07,-63.0624
2.49683e+07,-62.1643
2.50117e+07,-62.2676
2.5055e+07,-62.5228
2.50984e+07,-62.7812
2.51417e+07,-63.4059
2.51851e+07,-63.215
2.52284e+07,-62.5535
2.52718e+07,-63.4451
2.53151e+07,-61.479
2.53585e+07,-62.4196
2.54018e+07,-63.056
2.54451e+07,-62.6293
2.54885e+07,-60.6117
2.55318e+07,-63.0413
2.55752e+07,-62.8999
2.56185e+07,-62.5611
2.56619e+07,-62.7241
2.57052e+07,-63.2958
2.57486e+07,-62.2693
2.57919e+07,-62.8063
2.58353e+07,-62.1869
2.58786e+07,-62.046
2.5922e+07,-62.2254
2.59653e+07,-61.5203
2.60087e+07,-62.1477
2.6052e+07,-63.3043
2.60954e+07,-62.4257
2.61387e+07,-62.216
2.61821e+07,-61.46
2.62254e+07,-62.1855
2.62688e+07,-62.1553
2.63121e+07,-61.0162
2.63555e+07,-62.4469
2.63988e+07,-62.078
2.64421e+07,-61.0912
2.64855e+07,-62.6346
2.65288e+07,-62.133
2.65722e+07,-60.9404
2.66155e+07,-62.9995
2.66589e+07,-62.2791
2.67022e+07,-63.0656
2.67456e+07,-62.5436
2.67889e+07,-63.3802
2.68323e+07,-62.9469
2.68756e+07,-62.6151
2.6919e+07,-62.6105
2.69623e+07,-62.5204
2.70057e+07,-62.802
2.7049e+07,-61.9996
2.70924e+07,-63.3742
2.71357e+07,-61.6486
2.71791e+07,-63.3002
2.72224e+07,-63.4481
2.72658e+07,-62.9219
2.73091e+07,-63.8917
2.73525e+07,-63.4526
2.73958e+07,-63.9861
2.74391e+07,-63.7459
2.74825e+07,-63.0153
2.75258e+07,-63.2066
2.75692e+07,-63.8386
2.76125e+07,-63.134
2.76559e+07,-63.1051
2.76992e+07,-63.9008
2.77426e+07,-62.2016
2.77859e+07,-63.5511
2.78293e+07,-62.4683
2.78726e+07,-63.7495
2.7916e+07,-62.8543
2.79593e+07,-62.1235
2.80027e+07,-63.4801
2.8046e+07,-63.475
2.80894e+07,-62.9049
2.81327e+07,-63.4498
2.81761e+07,-64.1059
2.82194e+07,-62.4447
2.82628e+07,-63.8517
2.83061e+07,-62.5156
2.83494e+07,-64.1268
2.83928e+07,-62.7923
2.84361e+07,-60.83
2.84795e+07,-63.0117
2.85228e+07,-62.4613
2.85662e+07,-62.8287
2.86095e+07,-63.528
2.86529e+07,-62.8423
2.86962e+07,-62.7086
2.87396e+07,-63.4426
2.87829e+07,-63.4723
2.88263e+07,-64.1197
2.88696e+07,-63.3383
2.8913e+07,-62.5942
2.89563e+07,-64.2057
2.89997e+07,-63.5367
2.9043e+07,-63.6581
2.90864e+07,-62.1967
2.91297e+07,-62.9012
2.91731e+07,-63.2443
2.92164e+07,-63.3913
2.92598e+07,-62.2004
2.93031e+07,-63.1808
2.93464e+07,-62.6108
2.93898e+07,-62.7565
2.94331e+07,-61.6161
2.94765e+07,-62.2516
2.95198e+07,-63.4647
2.95632e+07,-63.3851
2.96065e+07,-63.3849
2.96499e+07,-61.551
2.96932e+07,-63.5091
2.97366e+07,-60.701
2.97799e+07,-62.0489
2.98233e+07,-63.6757
2.98666e+07,-62.5324
2.991e+07,-63.3592
2.99533e+07,-62.2022
2.99967e+07,-63.2901
3.004e+07,-62.7864
3.00834e+07,-62.0224
3.01267e+07,-62.1672
3.01701e+07,-62.2491
3.02134e+07,-62.6167
3.02568e+07,-62.4996
3.03001e+07,-62.1708
3.03434e+07,-63.4518
3.03868e+07,-62.257
3.04301e+07,-61.6976
3.04735e+07,-61.28
3.05168e+07,-63.2249
3.05602e+07,-62.0334
3.06035e+07,-62.0079
3.06469e+07,-62.1567
3.06902e+07,-62.6104
3.07336e+07,-61.7332
3.07769e+07,-61.4593
3.08203e+07,-61.7084
3.08636e+07,-62.3382
3.0907e+07,-62.6006
3.09503e+07,-62.1256
3.09937e+07,-61.6266
3.1037e+07,-62.5416
3.10804e+07,-61.8888
3.11237e+07,-61.0934
3.11671e+07,-62.0864
3.12104e+07,-61.6907
3.12538e+07,-62.5498
3.12971e+07,-62.4425
3.13404e+07,-61.9547
3.13838e+07,-61.2342
3.14271e+07,-61.9293
3.14705e+07,-60.6658
3.15138e+07,-61.4924
3.15572e+07,-61.2181
3.16005e+07,-61.4287
3.16439e+07,-61.1029
3.16872e+07,-62.1059
3.17306e+07,-61.9996
3.17739e+07,-61.3104
3.18173e+07,-59.923
3.18606e+07,-61.6437
3.1904e+07,-60.9548
3.19473e+07,-61.774
3.19907e+07,-59.2024
3.2034e+07,-61.0484
3.20774e+07,-62.3032
3.21207e+07,-61.9603
3.21641e+07,-61.3755
3.22074e+07,-61.1009
3.22508e+07,-60.3993
3.22941e+07,-62.1766
3.23374e+07,-59.7014
3.23808e+07,-61.219
3.24241e+07,-60.1736
3.24675e+07,-61.1496
3.25108e+07,-59.1153
3.25542e+07,-61.4728
3.25975e+07,-60.2038
3.26409e+07,-61.7019
3.26842e+07,-60.3802
3.27276e+07,-61.6609
3.27709e+07,-61.9077
3.28143e+07,-60.7739
3.28576e+07,-61.3494
3.2901e+07,-61.7132
3.29443e+07,-60.7295
3.29877e+07,-61.4831
3.3031e+07,-60.6856
3.30744e+07,-60.8428
3.31177e+07,-61.255
3.31611e+07,-62.5071
3.32044e+07,-61.4466
3.32477e+07,-62.7564
3.32911e+07,-62.3954
3.33344e+07,-62.4663
3.33778e+07,-62.3028
3.34211e+07,-60.7607
3.34645e+07,-61.3238
3.35078e+07,-61.6906
3.35512e+07,-61.7027
3.35945e+07,-61.7107
3.36379e+07,-62.6817
3.36812e+07,-62.5816
3.37246e+07,-62.0135
3.37679e+07,-62.7822
3.38113e+07,-62.1282
3.38546e+07,-60.3481
3.3898e+07,-62.2096
3.39413e+07,-61.9874
3.39847e+07,-63.384
3.4028e+07,-61.6116
3.40714e+07,-62.0335
3.41147e+07,-62.6344
3.41581e+07,-62.5709
3.42014e+07,-62.8596
3.42447e+07,-62.6703
3.42881e+07,-63.2259
3.43314e+07,-62.122
3.43748e+07,-62.9151
3.44181e+07,-61.8643
3.44615e+07,-62.5158
3.45048e+07,-62.5112
3.45482e+07,-62.3909
3.45915e+07,-62.8442
3.46349e+07,-63.6482
3.46782e+07,-63.6022
3.47216e+07,-63.0892
3.47649e+07,-63.008
3.48083e+07,-61.7637
3.48516e+07,-62.8853
3.4895e+07,-62.5098
3.49383e+07,-62.7919
3.49817e+07,-61.5318
3.5025e+07,-62.3013
3.50684e+07,-62.0341
3.51117e+07,-63.0401
3.51551e+07,-62.617
3.51984e+07,-62.5987
3.52417e+07,-61.8863
3.52851e+07,-62.8324
3.53284e+07,-61.7865
3.53718e+07,-61.0326
3.54151e+07,-60.1048
3.54585e+07,-62.3744
3.55018e+07,-62.1264
3.55452e+07,-62.7528
3.55885e+07,-61.9689
3.56319e+07,-62.1517
3.56752e+07,-63.255
3.57186e+07,-61.3235
3.57619e+07,-61.943
3.58053e+07,-62.0697
3.58486e+07,-62.2721
3.5892e+07,-62.9331
3.59353e+07,-62.1205
3.59787e+07,-60.4599
3.6022e+07,-61.7224
3.60654e+07,-61.556
3.61087e+07,-62.9042
3.61521e+07,-62.6498
3.61954e+07,-61.5435
3.62387e+07,-62.9743
3.62821e+07,-62.9223
3.63254e+07,-62.4022
3.63688e+07,-61.9157
3.64121e+07,-61.4114
3.64555e+07,-62.5942
3.64988e+07,-62.9309
3.65422e+07,-61.741
3.65855e+07,-60.1517
3.66289e+07,-61.9989
3.66722e+07,-62.2997
3.67156e+07,-62.2255
3.67589e+07,-62.7761
3.68023e+07,-61.4456
3.68456e+07,-62.0192
3.6889e+07,-62.409
3.69323e+07,-62.2334
3.69757e+07,-61.3464
3.7019e+07,-62.2897
3.70624e+07,-63.0045
3.71057e+07,-63.1431
3.7149e+07,-62.7102
3.71924e+07,-62.0095
3.72357e+07,-62.9802
3.72791e+07,-62.7465
3.73224e+07,-61.182
3.73658e+07,-61.2669
3.74091e+07,-61.1241
3.74525e+07,-62.4248
3.74958e+07,-61.579
3.75392e+07,-61.1275
3.75825e+07,-61.8238
3.76259e+07,-61.2117
3.76692e+07,-62.1186
3.77126e+07,-60.8595
3.77559e+07,-61.9442
3.77993e+07,-62.1052
3.78426e+07,-62.5757
3.7886e+07,-61.8145
3.79293e+07,-63.0061
3.79727e+07,-62.7625
3.8016e+07,-62.6796
3.80594e+07,-62.7992
3.81027e+07,-60.9101
3.8146e+07,-61.5124
3.81894e+07,-61.1213
3.82327e+07,-62.4799
3.82761e+07,-62.2765
3.83194e+07,-61.8295
3.83628e+07,-62.4839
3.84061e+07,-61.7672
3.84495e+07,-62.5509
3.84928e+07,-62.1715
3.85362e+07,-61.507
3.85795e+07,-62.2579
3.86229e+07,-61.8118
3.86662e+07,-61.8615
3.87096e+07,-62.6406
3.87529e+07,-62.3273
3.87963e+07,-61.1383
3.88396e+07,-62.2352
3.8883e+07,-62.3886
3.89263e+07,-62.6035
3.89697e+07,-62.3222
3.9013e+07,-62.1783
3.90564e+07,-60.9817
3.90997e+07,-62.6392
3.9143e+07,-61.4372
3.91864e+07,-61.6012
3.92297e+07,-61.9012
3.92731e+07,-62.1085
3.93164e+07,-61.4049
3.93598e+07,-62.4223
3.94031e+07,-62.1038
3.94465e+07,-61.4084
3.94898e+07,-61.2982
3.95332e+07,-62.0308
3.95765e+07,-61.9167
3.96199e+07,-60.493
3.96632e+07,-61.0475
3.97066e+07,-62.5239
3.97499e+07,-60.7636
3.97933e+07,-62.5822
3.98366e+07,-61.9367
3.988e+07,-61.1152
3.99233e+07,-61.6026
3.99667e+07,-61.3043
4.001e+07,-61.9529
4.00534e+07,-61.6548
4.00967e+07,-61.9064
4.014e+07,-60.5913
4.01834e+07,-62.7499
4.02267e+07,-61.9944
4.02701e+07,-62.1737
4.03134e+07,-61.581
4.03568e+07,-60.9958
4.04001e+07,-62.0319
4.04435e+07,-61.8343
4.04868e+07,-61.8093
4.05302e+07,-61.7967
4.05735e+07,-62.4269
4.06169e+07,-62.3823
4.06602e+07,-60.9721
4.07036e+07,-61.6688
4.07469e+07,-62.0137
4.07903e+07,-61.6359
4.08336e+07,-60.7781
4.0877e+07,-61.9372
4.09203e+07,-61.4905
4.09637e+07,-62.3106
4.1007e+07,-60.6605
4.10504e+07,-62.4966
4.10937e+07,-62.4964
4.1137e+07,-61.5057
4.11804e+07,-61.815
4.12237e+07,-60.2451
4.12671e+07,-61.5292
4.13104e+07,-62.3843
4.13538e+07,-61.5934
4.13971e+07,-61.354
4.14405e+07,-61.7686
4.14838e+07,-61.914
4.15272e+07,-62.0619
4.15705e+07,-60.9051
4.16139e+07,-62.2166
4.16572e+07,-61.2011
4.17006e+07,-59.8147
4.17439e+07,-62.0996
4.17873e+07,-61.0893
4.18306e+07,-61.0245
4.1874e+07,-61.0813
4.19173e+07,-61.5189
4.19607e+07,-61.8872
4.2004e+07,-61.3873
4.20473e+07,-61.3674
4.20907e+07,-60.8474
4.2134e+07,-61.6351
4.21774e+07,-61.8488
4.22207e+07,-62.2361
4.22641e+07,-60.7987
4.23074e+07,-61.1794
4.23508e+07,-61.9698
4.23941e+07,-61.6261
4.24375e+07,-61.687
4.24808e+07,-60.6952
4.25242e+07,-61.3736
4.25675e+07,-61.6947
4.26109e+07,-62.309
4.26542e+07,-62.0921
4.26976e+07,-61.6861
4.27409e+07,-62.335
4.27843e+07,-61.6409
4.28276e+07,-61.4677
4.2871e+07,-61.5275
4.29143e+07,-62.3211
4.29577e+07,-60.6826
4.3001e+07,-60.785
4.30443e+07,-61.6116
4.30877e+07,-61.9377
4.3131e+07,-61.2384
4.31744e+07,-61.4465
4.32177e+07,-59.8953
4.32611e+07,-61.008
4.33044e+07,-61.3079
4.33478e+07,-60.124
4.33911e+07,-61.1332
4.34345e+07,-61.4098
4.34778e+07,-58.7054
4.35212e+07,-60.2265
4.35645e+07,-59.8277
4.36079e+07,-59.2004
4.36512e+07,-59.0089
4.36946e+07,-59.1145
4.37379e+07,-57.9226
4.37813e+07,-58.892
4.38246e+07,-58.5204
4.3868e+07,-57.0837
4.39113e+07,-58.0826
4.39547e+07,-56.4633
4.3998e+07,-58.4858
4.40413e+07,-56.4832
4.40847e+07,-57.5173
4.4128e+07,-55.1813
4.41714e+07,-58.7816
4.42147e+07,-56.2849
4.42581e+07,-57.7944
4.43014e+07,-54.8579
4.43448e+07,-58.2061
4.43881e+07,-55.2074
4.44315e+07,-57.3357
4.44748e+07,-54.0534
4.45182e+07,-57.4678
4.45615e+07,-54.6253
4.46049e+07,-56.1787
4.46482e+07,-54.4188
4.46916e+07,-58.812
4.47349e+07,-54.875
4.47783e+07,-58.7619
4.48216e+07,-55.237
4.4865e+07,-58.8467
4.49083e+07,-54.3069
4.49517e+07,-59.0373
4.4995e+07,-53.7493
4.50383e+07,-59.435
4.50817e+07,-55.0397
4.5125e+07,-60.5734
4.51684e+07,-54.506
4.52117e+07,-59.9986
4.52551e+07,-55.4843
4.52984e+07,-60.2131
4.53418e+07,-54.0553
4.53851e+07,-60.3206
4.54285e+07,-55.8353
4.54718e+07,-59.6671
4.55152e+07,-55.2598
4.55585e+07,-59.4237
4.56019e+07,-55.1412
4.56452e+07,-60.4075
4.56886e+07,-55.4527
4.57319e+07,-59.6176
4.57753e+07,-56.1182
4.58186e+07,-59.4734
4.5862e+07,-56.4699
4.59053e+07,-60.1593
4.59486e+07,-55.9278
4.5992e+07,-60.4239
4.60353e+07,-55.676
4.60787e+07,-58.8423
4.6122e+07,-56.311
4.61654e+07,-59.7526
4.62087e+07,-55.7701
4.62521e+07,-59.8379
4.62954e+07,-55.8845
4.63388e+07,-58.265
4.63821e+07,-56.5765
4.64255e+07,-60.5041
4.64688e+07,-57.4885
4.65122e+07,-60.313
4.65555e+07,-58.1001
4.65989e+07,-59.7937
4.66422e+07,-57.891
4.66856e+07,-59.177
4.67289e+07,-58.0643
4.67723e+07,-58.456
4.68156e+07,-58.4615
4.6859e+07,-59.4033
4.69023e+07,-58.5407
4.69456e+07,-59.6943
4.6989e+07,-58.7335
4.70323e+07,-58.9189
4.70757e+07,-58.3484
4.7119e+07,-59.0476
4.71624e+07,-58.6228
4.72057e+07,-59.2894
4.72491e+07,-57.9846
4.72924e+07,-58.8321
4.73358e+07,-58.9417
4.73791e+07,-58.1297
4.74225e+07,-57.9094
4.74658e+07,-59.0343
4.75092e+07,-58.4902
4.75525e+07,-58.6676
4.75959e+07,-58.0747
4.76392e+07,-58.0476
4.76826e+07,-56.5264
4.77259e+07,-58.7864
4.77693e+07,-57.7297
4.78126e+07,-57.9772
4.7856e+07,-58.5429
4.78993e+07,-57.5875
4.79426e+07,-57.2663
4.7986e+07,-55.9989
4.80293e+07,-57.4175
4.80727e+07,-57.7964
4.8116e+07,-58.2558
4.81594e+07,-56.0903
4.82027e+07,-57.0729
4.82461e+07,-58.0212
4.82894e+07,-57.8534
4.83328e+07,-57.2772
4.83761e+07,-56.967
4.84195e+07,-57.1666
4.84628e+07,-57.1835
4.85062e+07,-56.4716
4.85495e+07,-58.4215
4.85929e+07,-57.7501
4.86362e+07,-58.3679
4.86796e+07,-56.8454
4.87229e+07,-58.4575
4.87663e+07,-58.0678
4.88096e+07,-58.0595
4.8853e+07,-57.5866
4.88963e+07,-59.2833
4.89396e+07,-58.0942
4.8983e+07,-58.3164
4.90263e+07,-58.1347
4.90697e+07,-59.5734
4.9113e+07,-57.7665
4.91564e+07,-57.6497
4.91997e+07,-56.5414
4.92431e+07,-58.6268
4.92864e+07,-57.6647
4.93298e+07,-58.1855
4.93731e+07,-58.0064
4.94165e+07,-59.9801
4.94598e+07,-58.207
4.95032e+07,-60.044
4.95465e+07,-58.0165
4.95899e+07,-59.7764
4.96332e+07,-58.3475
4.96766e+07,-59.9623
4.97199e+07,-58.4426
4.97633e+07,-60.4957
4.98066e+07,-58.8201
4.98499e+07,-60.403
4.98933e+07,-58.2026
4.99366e+07,-60.7416
4.998e+07,-57.8949
5.00233e+07,-61.3112
5.00667e+07,-58.2461
5.011e+07,-60.1855
5.01534e+07,-58.7807
5.01967e+07,-59.2137
5.02401e+07,-57.2213
5.02834e+07,-59.4226
5.03268e+07,-59.2102
5.03701e+07,-60.0241
5.04135e+07,-59.2563
5.04568e+07,-60.2955
5.05002e+07,-59.3589
5.05435e+07,-59.5075
5.05869e+07,-59.6457
5.06302e+07,-60.2184
5.06736e+07,-60.5573
5.07169e+07,-60.3789
5.07603e+07,-59.3581
5.08036e+07,-61.2539
5.08469e+07,-58.7696
5.08903e+07,-61.3557
5.09336e+07,-59.8115
5.0977e+07,-60.3816
5.10203e+07,-60.0763
5.10637e+07,-60.727
5.1107e+07,-60.7673
5.11504e+07,-60.5666
5.11937e+07,-61.0597
5.12371e+07,-60.6971
5.12804e+07,-61.4218
5.13238e+07,-60.7666
5.13671e+07,-60.8891
5.14105e+07,-61.0209
5.14538e+07,-61.4531
5.14972e+07,-60.7256
5.15405e+07,-61.8283
5.15839e+07,-61.1428
5.16272e+07,-62.2597
5.16706e+07,-61.4245
5.17139e+07,-61.6912
5.17573e+07,-60.6735
5.18006e+07,-62.1763
5.18439e+07,-62.1545
5.18873e+07,-61.8731
5.19306e+07,-62.3291
5.1974e+07,-60.7314
5.20173e+07,-63.1047
5.20607e+07,-62.9894
5.2104e+07,-61.455
5.21474e+07,-62.4845
5.21907e+07,-61.407
5.22341e+07,-62.0371
5.22774e+07,-63.0846
5.23208e+07,-62.5971
5.23641e+07,-62.8983
5.24075e+07,-62.2616
5.24508e+07,-63.4181
5.24942e+07,-62.8556
5.25375e+07,-63.3879
5.25809e+07,-62.1046
5.26242e+07,-62.1131
5.26676e+07,-62.7199
5.27109e+07,-63.1558
5.27543e+07,-62.4153
5.27976e+07,-62.968
5.28409e+07,-61.189
5.28843e+07,-62.2338
5.29276e+07,-62.6362
5.2971e+07,-62.8072
5.30143e+07,-62.4547
5.30577e+07,-62.7836
5.3101e+07,-62.59
5.31444e+07,-62.8911
5.31877e+07,-61.8773
5.32311e+07,-61.6822
5.32744e+07,-62.5804
5.33178e+07,-62.1931
5.33611e+07,-62.2017
5.34045e+07,-62.7268
5.34478e+07,-62.722
5.34912e+07,-62.708
5.35345e+07,-62.7914
5.35779e+07,-62.0328
5.36212e+07,-62.284
5.36646e+07,-61.7633
5.37079e+07,-62.3146
5.37513e+07,-62.8986
5.37946e+07,-61.6845
5.38379e+07,-61.6352
5.38813e+07,-61.8124
5.39246e+07,-61.9805
5.3968e+07,-61.6512
5.40113e+07,-62.3269
5.40547e+07,-61.1542
5.4098e+07,-62.5188
5.41414e+07,-61.9248
5.41847e+07,-61.8951
5.42281e+07,-62.0136
5.42714e+07,-62.4417
5.43148e+07,-61.9496
5.43581e+07,-62.7145
5.44015e+07,-62.1853
5.44448e+07,-61.0112
5.44882e+07,-61.2304
5.45315e+07,-61.6821
5.45749e+07,-61.5597
5.46182e+07,-62.3603
5.46616e+07,-62.0079
5.47049e+07,-61.6898
5.47482e+07,-62.1798
5.47916e+07,-61.5186
5.48349e+07,-62.0544
5.48783e+07,-62.4667
5.49216e+07,-61.0937
5.4965e+07,-62.3548
5.50083e+07,-61.3781
5.50517e+07,-61.9599
5.5095e+07,-60.1972
5.51384e+07,-61.6311
5.51817e+07,-61.8207
5.52251e+07,-62.984
5.52684e+07,-62.3627
5.53118e+07,-60.8839
5.53551e+07,-62.4159
5.53985e+07,-62.1821
5.54418e+07,-62.9881
5.54852e+07,-62.86
5.55285e+07,-61.895
5.55719e+07,-61.593
5.56152e+07,-63.5647
5.56586e+07,-61.297
5.57019e+07,-62.9872
5.57452e+07,-62.9443
5.57886e+07,-63.2093
5.58319e+07,-63.3823
5.58753e+07,-62.5857
5.59186e+07,-61.5352
5.5962e+07,-61.2882
5.60053e+07,-61.9146
5.60487e+07,-61.843
5.6092e+07,-61.9906
5.61354e+07,-63.1254
5.61787e+07,-62.5665
5.62221e+07,-61.8676
5.62654e+07,-63.0045
5.63088e+07,-62.2228
5.63521e+07,-62.575
5.63955e+07,-62.0408
5.64388e+07,-62.7634
5.64822e+07,-63.2071
5.65255e+07,-63.0373
5.65689e+07,-63.9155
5.66122e+07,-62.7675
5.66556e+07,-63.085
5.66989e+07,-63.1284
5.67422e+07,-62.889
5.67856e+07,-62.4292
5.68289e+07,-63.8091
5.68723e+07,-62.1513
5.69156e+07,-62.4826
5.6959e+07,-63.2301
5.70023e+07,-62.8599
5.70457e+07,-62.8739
5.7089e+07,-62.9829
5.71324e+07,-62.7986
5.71757e+07,-63.3731
5.72191e+07,-62.2244
5.72624e+07,-64.1015
5.73058e+07,-62.7191
5.73491e+07,-62.9252
5.73925e+07,-62.3252
5.74358e+07,-61.7847
5.74792e+07,-63.493
5.75225e+07,-63.4828
5.75659e+07,-62.7417
5.76092e+07,-62.934
5.76526e+07,-64.0843
5.76959e+07,-63.1891
5.77392e+07,-63.0052
5.77826e+07,-62.6442
5.78259e+07,-62.6533
5.78693e+07,-63.5683
5.79126e+07,-63.5122
5.7956e+07,-62.6438
5.79993e+07,-63.6811
5.80427e+07,-61.9979
5.8086e+07,-63.2175
5.81294e+07,-63.4209
5.81727e+07,-63.8057
5.82161e+07,-62.9849
5.82594e+07,-62.8993
5.83028e+07,-62.6338
5.83461e+07,-63.0229
5.83895e+07,-61.9716
5.84328e+07,-61.9715
5.84762e+07,-63.39
5.85195e+07,-63.711
5.85629e+07,-62.9175
5.86062e+07,-63.8732
5.86495e+07,-63.1186
5.86929e+07,-62.5552
5.87362e+07,-62.7203
5.87796e+07,-63.4596
5.88229e+07,-63.3691
5.88663e+07,-63.3342
5.89096e+07,-62.4643
5.8953e+07,-62.1375
5.89963e+07,-61.7064
5.90397e+07,-59.6429
5.9083e+07,-62.7427
5.91264e+07,-62.8878
5.91697e+07,-63.1125
5.92131e+07,-61.9951
5.92564e+07,-63.3183
5.92998e+07,-62.3738
5.93431e+07,-61.948
5.93865e+07,-63.239
5.94298e+07,-63.808
5.94732e+07,-62.5898
5.95165e+07,-62.3378
5.95599e+07,-62.3777
5.96032e+07,-63.2237
5.96465e+07,-63.1211
5.96899e+07,-62.8581
5.97332e+07,-62.2184
5.97766e+07,-62.1659
5.98199e+07,-63.4068
5.98633e+07,-63.3866
5.99066e+07,-62.9618
5.995e+07,-62.662
5.99933e+07,-63.4064
6.00367e+07,-63.1201
6.008e+07,-62.1782
6.01234e+07,-61.8157
6.01667e+07,-62.178
6.02101e+07,-63.2814
6.02534e+07,-60.5255
6.02968e+07,-63.5625
6.03401e+07,-62.407
6.03835e+07,-63.4004
6.04268e+07,-62.2958
6.04702e+07,-62.7161
6.05135e+07,-62.7346
6.05569e+07,-62.6238
6.06002e+07,-62.5506
6.06435e+07,-63.445
6.06869e+07,-63.3198
6.07302e+07,-61.3508
6.07736e+07,-63.8258
6.08169e+07,-62.6048
6.08603e+07,-62.6001
6.09036e+07,-63.5968
6.0947e+07,-62.907
6.09903e+07,-62.1283
6.10337e+07,-63.7101
6.1077e+07,-63.2005
6.11204e+07,-63.9096
6.11637e+07,-61.326
6.12071e+07,-64.3175
6.12504e+07,-62.6313
6.12938e+07,-63.6319
6.13371e+07,-63.5549
6.13805e+07,-62.5715
6.14238e+07,-61.821
6.14672e+07,-61.4807
6.15105e+07,-63.3278
6.15539e+07,-62.9008
6.15972e+07,-63.4427
6.16405e+07,-63.719
6.16839e+07,-64.4908
6.17272e+07,-64.3946
6.17706e+07,-63.9453
6.18139e+07,-64.316
6.18573e+07,-64.7852
6.19006e+07,-65.0842
6.1944e+07,-64.0415
6.19873e+07,-63.1154
6.20307e+07,-64.1773
6.2074e+07,-64.8437
6.21174e+07,-63.8859
6.21607e+07,-64.8672
6.22041e+07,-63.9496
6.22474e+07,-65.206
6.22908e+07,-63.9494
6.23341e+07,-63.301
6.23775e+07,-64.393
6.24208e+07,-63.0853
6.24642e+07,-63.9063
6.25075e+07,-64.9559
6.25509e+07,-65.0341
6.25942e+07,-64.1431
6.26375e+07,-64.801
6.26809e+07,-63.6337
6.27242e+07,-63.9483
6.27676e+07,-64.1318
6.28109e+07,-65.2666
6.28543e+07,-65.0637
6.28976e+07,-63.2502
6.2941e+07,-64.901
6.29843e+07,-63.4899
6.30277e+07,-64.6135
6.3071e+07,-64.9846
6.31144e+07,-66.0869
6.31577e+07,-64.6479
6.32011e+07,-64.3294
6.32444e+07,-65.7646
6.32878e+07,-64.4021
6.33311e+07,-64.0058
6.33745e+07,-63.9414
6.34178e+07,-63.7617
6.34612e+07,-65.7575
6.35045e+07,-65.3336
6.35478e+07,-64.7167
6.35912e+07,-65.0619
6.36345e+07,-64.9772
6.36779e+07,-65.7833
6.37212e+07,-64.4179
6.37646e+07,-65.7963
6.38079e+07,-65.421
6.38513e+07,-64.5885
6.38946e+07,-64.8334
6.3938e+07,-63.5588
6.39813e+07,-64.6575
6.40247e+07,-65.4586
6.4068e+07,-65.0547
6.41114e+07,-64.7329
6.41547e+07,-65.1644
6.41981e+07,-65.5605
6.42414e+07,-65.3068
6.42848e+07,-63.8754
6.43281e+07,-65.9014
6.43715e+07,-65.955
6.44148e+07,-65.2008
6.44582e+07,-65.0174
6.45015e+07,-63.5882
6.45448e+07,-60.4364
6.45882e+07,-64.6328
6.46315e+07,-65.9476
6.46749e+07,-65.4825
6.47182e+07,-65.2931
6.47616e+07,-64.7371
6.48049e+07,-64.6903
6.48483e+07,-64.3478
6.48916e+07,-63.5872
6.4935e+07,-64.0667
6.49783e+07,-64.9679
6.50217e+07,-64.3698
6.5065e+07,-65.636
6.51084e+07,-63.8893
6.51517e+07,-64.8067
6.51951e+07,-64.4144
6.52384e+07,-65.6291
6.52818e+07,-65.2855
6.53251e+07,-65.1187
6.53685e+07,-64.3745
6.54118e+07,-63.9045
6.54552e+07,-64.8771
6.54985e+07,-64.7882
6.55418e+07,-64.9967
6.55852e+07,-65.0147
6.56285e+07,-64.7997
6.56719e+07,-62.3096
6.57152e+07,-65.2907
6.57586e+07,-64.5208
6.58019e+07,-64.6357
6.58453e+07,-62.6662
6.58886e+07,-65.2778
6.5932e+07,-64.7285
6.59753e+07,-64.7577
6.60187e+07,-64.7458
6.6062e+07,-64.5831
6.61054e+07,-65.6399
6.61487e+07,-64.9591
6.61921e+07,-64.0908
6.62354e+07,-64.4969
6.62788e+07,-65.0737
6.63221e+07,-63.4616
6.63655e+07,-63.8334
6.64088e+07,-62.9128
6.64522e+07,-64.6573
6.64955e+07,-65.8361
6.65388e+07,-64.4111
6.65822e+07,-64.5819
6.66255e+07,-64.3156
6.66689e+07,-65.1522
6.67122e+07,-65.4712
6.67556e+07,-64.874
6.67989e+07,-63.2902
6.68423e+07,-63.4553
6.68856e+07,-63.6804
6.6929e+07,-64.7144
6.69723e+07,-64.4951
6.70157e+07,-65.1085
6.7059e+07,-64.4381
6.71024e+07,-64.9929
6.71457e+07,-64.2753
6.71891e+07,-64.3983
6.72324e+07,-63.8524
6.72758e+07,-64.5745
6.73191e+07,-65.8674
6.73625e+07,-64.6088
6.74058e+07,-65.0043
6.74491e+07,-65.0163
6.74925e+07,-65.7807
6.75358e+07,-64.0496
6.75792e+07,-65.8335
6.76225e+07,-65.0887
6.76659e+07,-64.9855
6.77092e+07,-65.4561
6.77526e+07,-65.1681
6.77959e+07,-66.0551
6.78393e+07,-65.1556
6.78826e+07,-64.573
6.7926e+07,-64.5729
6.79693e+07,-65.953
6.80127e+07,-65.5577
6.8056e+07,-64.8056
6.80994e+07,-64.561
6.81427e+07,-65.0085
6.81861e+07,-66.0474
6.82294e+07,-65.6543
6.82728e+07,-65.7459
6.83161e+07,-65.4993
6.83595e+07,-65.6345
6.84028e+07,-65.8116
6.84461e+07,-65.9586
6.84895e+07,-65.4097
6.85328e+07,-66.0943
6.85762e+07,-65.9921
6.86195e+07,-66.0463
6.86629e+07,-66.5367
6.87062e+07,-67.0182
6.87496e+07,-66.5726
6.87929e+07,-65.5173
6.88363e+07,-65.8905
6.88796e+07,-65.2085
6.8923e+07,-66.3931
6.89663e+07,-66.4285
6.90097e+07,-64.8566
6.9053e+07,-66.8513
6.90964e+07,-67.0555
6.91397e+07,-65.1217
6.91831e+07,-66.4209
6.92264e+07,-67.0246
6.92698e+07,-66.6733
6.93131e+07,-65.8094
6.93565e+07,-66.1061
6.93998e+07,-67.2091
6.94431e+07,-66.2581
6.94865e+07,-66.8653
6.95298e+07,-66.4271
6.95732e+07,-66.6945
6.96165e+07,-66.9704
6.96599e+07,-64.8491
6.97032e+07,-66.768
6.97466e+07,-65.9487
6.97899e+07,-66.7087
6.98333e+07,-66.0844
6.98766e+07,-66.7453
6.992e+07,-66.5409
6.99633e+07,-66.0704
7.00067e+07,-65.9414
7.005e+07,-66.2288
7.00934e+07,-66.5693
7.01367e+07,-65.4693
7.01801e+07,-67.0299
7.02234e+07,-65.4819
7.02668e+07,-66.6052
7.03101e+07,-65.6689
7.03535e+07,-66.2839
7.03968e+07,-66.8931
7.04401e+07,-66.2767
7.04835e+07,-66.4462
7.05268e+07,-65.688
7.05702e+07,-65.5002
7.06135e+07,-66.7732
7.06569e+07,-65.6485
7.07002e+07,-65.2975
7.07436e+07,-66.0617
7.07869e+07,-65.2039
7.08303e+07,-65.9192
7.08736e+07,-66.3037
7.0917e+07,-66.8469
7.09603e+07,-66.2965
7.10037e+07,-63.0501
7.1047e+07,-65.1294
7.10904e+07,-66.5308
7.11337e+07,-66.3031
7.11771e+07,-65.1475
7.12204e+07,-65.5693
7.12638e+07,-65.9249
7.13071e+07,-66.359
7.13505e+07,-64.7213
7.13938e+07,-64.5359
7.14371e+07,-65.5817
7.14805e+07,-66.3374
7.15238e+07,-65.3456
7.15672e+07,-65.5814
7.16105e+07,-66.0187
7.16539e+07,-65.3516
7.16972e+07,-65.3767
7.17406e+07,-66.7261
7.17839e+07,-65.3513
7.18273e+07,-65.6848
7.18706e+07,-65.2448
7.1914e+07,-65.2198
7.19573e+07,-65.8429
7.20007e+07,-65.6063
7.2044e+07,-65.9634
7.20874e+07,-65.1515
7.21307e+07,-65.6449
7.21741e+07,-65.0109
7.22174e+07,-65.7693
7.22608e+07,-66.0922
7.23041e+07,-65.6055
7.23474e+07,-66.2163
7.23908e+07,-66.0714
7.24341e+07,-66.3917
7.24775e+07,-65.0344
7.25208e+07,-64.8363
7.25642e+07,-65.0768
7.26075e+07,-65.1011
7.26509e+07,-66.4267
7.26942e+07,-64.6423
7.27376e+07,-65.4886
7.27809e+07,-65.768
7.28243e+07,-65.9683
7.28676e+07,-65.2922
7.2911e+07,-65.3549
7.29543e+07,-65.3046
7.29977e+07,-64.1783
7.3041e+07,-66.0835
7.30844e+07,-65.7672
7.31277e+07,-65.6165
7.31711e+07,-67.2156
7.32144e+07,-65.3984
7.32578e+07,-66.083
7.33011e+07,-65.9672
7.33444e+07,-66.347
7.33878e+07,-65.4934
7.34311e+07,-67.0297
7.34745e+07,-66.0414
7.35178e+07,-66.7736
7.35612e+07,-67.1138
7.36045e+07,-65.4993
7.36479e+07,-66.1301
7.36912e+07,-66.1094
7.37346e+07,-66.034
7.37779e+07,-65.5761
7.38213e+07,-66.7137
7.38646e+07,-65.9658
7.3908e+07,-67.0057
7.39513e+07,-65.4729
7.39947e+07,-66.6472
7.4038e+07,-65.8179
7.40814e+07,-66.1428
7.41247e+07,-65.9247
7.41681e+07,-66.6541
7.42114e+07,-66.2816
7.42548e+07,-66.4229
7.42981e+07,-66.8014
7.43414e+07,-66.7124
7.43848e+07,-66.0665
7.44281e+07,-65.3575
7.44715e+07,-66.5516
7.45148e+07,-66.9586
7.45582e+07,-65.9641
7.46015e+07,-66.9508
7.46449e+07,-66.183
7.46882e+07,-66.169
7.47316e+07,-68.0125
7.47749e+07,-65.8963
7.48183e+07,-66.6233
7.48616e+07,-67.1571
7.4905e+07,-66.2799
7.49483e+07,-67.0797
7.49917e+07,-66.7035
7.5035e+07,-65.7296
7.50784e+07,-67.5128
7.51217e+07,-66.6445
7.51651e+07,-66.9646
7.52084e+07,-65.8418
7.52518e+07,-67.195
7.52951e+07,-66.564
7.53384e+07,-66.8213
7.53818e+07,-66.949
7.54251e+07,-67.7412
7.54685e+07,-67.3756
7.55118e+07,-66.7762
7.55552e+07,-65.881
7.55985e+07,-65.5846
7.56419e+07,-66.7315
7.56852e+07,-65.6234
7.57286e+07,-67.8322
7.57719e+07,-65.7872
7.58153e+07,-68.0013
7.58586e+07,-66.1593
7.5902e+07,-67.3745
7.59453e+07,-67.4223
7.59887e+07,-65.8599
7.6032e+07,-66.2913
7.60754e+07,-66.5044
7.61187e+07,-67.3185
7.61621e+07,-66.9395
7.62054e+07,-65.9467
7.62487e+07,-67.4697
7.62921e+07,-65.2965
7.63354e+07,-67.4694
7.63788e+07,-65.4734
7.64221e+07,-66.1718
7.64655e+07,-66.9236
7.65088e+07,-66.612
7.65522e+07,-67.0222
7.65955e+07,-65.8718
7.66389e+07,-66.8931
7.66822e+07,-66.7216
7.67256e+07,-65.8983
7.67689e+07,-66.3742
7.68123e+07,-67.0292
7.68556e+07,-66.9227
7.6899e+07,-65.5557
7.69423e+07,-64.6786
7.69857e+07,-67.3481
7.7029e+07,-66.5962
7.70724e+07,-66.5236
7.71157e+07,-66.538
7.71591e+07,-66.975
7.72024e+07,-65.877
7.72457e+07,-67.6296
7.72891e+07,-66.1213
7.73324e+07,-66.809
7.73758e+07,-66.232
7.74191e+07,-67.4347
7.74625e+07,-66.8911
7.75058e+07,-66.8011
7.75492e+07,-65.9097
7.75925e+07,-65.9704
7.76359e+07,-66.8157
7.76792e+07,-66.1204
7.77226e+07,-66.3294
7.77659e+07,-66.5944
7.78093e+07,-66.0515
7.78526e+07,-67.0881
7.7896e+07,-66.3361
7.79393e+07,-67.4095
7.79827e+07,-66.1472
7.8026e+07,-66.3853
7.80694e+07,-66.9349
7.81127e+07,-67.1183
7.81561e+07,-66.7106
7.81994e+07,-66.7401
7.82427e+07,-66.6516
7.82861e+07,-66.1673
7.83294e+07,-66.829
7.83728e+07,-67.2579
7.84161e+07,-66.0637
7.84595e+07,-67.0329
7.85028e+07,-66.7913
7.85462e+07,-66.1944
7.85895e+07,-66.3132
7.86329e+07,-66.9033
7.86762e+07,-67.2336
7.87196e+07,-67.1867
7.87629e+07,-66.1109
7.88063e+07,-66.6356
7.88496e+07,-65.0922
7.8893e+07,-66.6208
7.89363e+07,-67.0855
7.89797e+07,-65.8127
7.9023e+07,-66.256
7.90664e+07,-66.6277
7.91097e+07,-65.9262
7.91531e+07,-66.055
7.91964e+07,-66.9549
7.92397e+07,-66.5618
7.92831e+07,-66.8642
7.93264e+07,-67.4542
7.93698e+07,-67.0154
7.94131e+07,-67.7482
7.94565e+07,-66.924
7.94998e+07,-66.213
7.95432e+07,-66.7294
7.95865e+07,-67.5262
7.96299e+07,-65.6726
7.96732e+07,-65.3955
7.97166e+07,-66.3317
7.97599e+07,-66.8931
7.98033e+07,-66.1221
7.98466e+07,-66.4881
7.989e+07,-66.8402
7.99333e+07,-66.4951
7.99767e+07,-67.6723
8.002e+07,-66.7579
8.00634e+07,-66.743
8.01067e+07,-67.8216
8.01501e+07,-67.6062
8.01934e+07,-67.2771
8.02367e+07,-67.4039
8.02801e+07,-67.4038
8.03234e+07,-67.2218
8.03668e+07,-67.5894
8.04101e+07,-66.6978
8.04535e+07,-67.7623
8.04968e+07,-66.4078
8.05402e+07,-66.8386
8.05835e+07,-66.846
8.06269e+07,-66.5078
8.06702e+07,-67.7868
8.07136e+07,-66.231
8.07569e+07,-67.7366
8.08003e+07,-67.9893
8.08436e+07,-66.7633
8.0887e+07,-67.4504
8.09303e+07,-67.2675
8.09737e+07,-66.6012
8.1017e+07,-65.6561
8.10604e+07,-67.2044
8.11037e+07,-67.3381
8.1147e+07,-67.173
8.11904e+07,-67.4658
8.12337e+07,-68.2486
8.12771e+07,-67.8777
8.13204e+07,-67.8355
8.13638e+07,-67.3058
8.14071e+07,-67.8605
8.14505e+07,-66.7619
8.14938e+07,-68.2128
8.15372e+07,-66.0973
8.15805e+07,-66.0972
8.16239e+07,-67.3448
8.16672e+07,-66.527
8.17106e+07,-68.0128
8.17539e+07,-67.9529
8.17973e+07,-66.7166
8.18406e+07,-67.3522
8.1884e+07,-68.6528
8.19273e+07,-66.7979
8.19707e+07,-67.8845
8.2014e+07,-67.6099
8.20574e+07,-66.7234
8.21007e+07,-66.5332
8.2144e+07,-67.1862
8.21874e+07,-67.7083
8.22307e+07,-67.9432
8.22741e+07,-67.4712
8.23174e+07,-67.8247
8.23608e+07,-67.4308
8.24041e+07,-67.2325
8.24475e+07,-67.4306
8.24908e+07,-66.171
8.25342e+07,-67.1154
8.25775e+07,-66.4099
8.26209e+07,-66.6191
8.26642e+07,-68.1837
8.27076e+07,-68.2011
8.27509e+07,-66.6701
8.27943e+07,-66.4308
8.28376e+07,-65.7108
8.2881e+07,-67.9672
8.29243e+07,-68.1394
8.29677e+07,-65.9845
8.3011e+07,-66.9533
8.30544e+07,-67.1529
8.30977e+07,-65.8561
8.3141e+07,-67.8648
8.31844e+07,-67.1837
8.32277e+07,-67.2698
8.32711e+07,-66.394
8.33144e+07,-66.7277
8.33578e+07,-67.0671
8.34011e+07,-67.623
8.34445e+07,-67.6722
8.34878e+07,-68.1555
8.35312e+07,-67.3402
8.35745e+07,-67.3401
8.36179e+07,-66.6094
8.36612e+07,-67.5245
8.37046e+07,-66.2377
8.37479e+07,-67.4677
8.37913e+07,-67.7376
8.38346e+07,-67.0506
8.3878e+07,-67.0582
8.39213e+07,-66.9815
8.39647e+07,-67.5075
8.4008e+07,-66.5358
8.40514e+07,-66.4996
8.40947e+07,-66.3282
8.4138e+07,-66.8976
8.41814e+07,-67.3387
8.42247e+07,-66.7924
8.42681e+07,-67.4745
8.43114e+07,-65.5507
8.43548e+07,-67.4341
8.43981e+07,-66.9804
8.44415e+07,-67.0876
8.44848e+07,-66.8291
8.45282e+07,-66.3625
8.45715e+07,-67.498
8.46149e+07,-66.9723
8.46582e+07,-67.1568
8.47016e+07,-67.2035
8.47449e+07,-66.5196
8.47883e+07,-66.9187
8.48316e+07,-66.9186
8.4875e+07,-67.2109
8.49183e+07,-66.8581
8.49617e+07,-67.5213
8.5005e+07,-65.1326
8.50483e+07,-66.0477
8.50917e+07,-66.6718
8.5135e+07,-66.6791
8.51784e+07,-67.1711
8.52217e+07,-66.9025
8.52651e+07,-66.206
8.53084e+07,-66.0676
8.53518e+07,-66.6126
8.53951e+07,-66.9856
8.54385e+07,-66.4531
8.54818e+07,-66.4029
8.55252e+07,-66.7818
8.55685e+07,-67.1624
8.56119e+07,-67.1157
8.56552e+07,-67.1856
8.56986e+07,-67.5765
8.57419e+07,-66.0872
8.57853e+07,-66.0871
8.58286e+07,-66.7587
8.5872e+07,-66.781
8.59153e+07,-65.8829
8.59587e+07,-67.279
8.6002e+07,-66.3024
8.60453e+07,-65.9162
8.60887e+07,-66.9611
8.6132e+07,-67.6905
8.61754e+07,-66.6179
8.62187e+07,-68.0794
8.62621e+07,-67.231
8.63054e+07,-66.9454
8.63488e+07,-65.3857
8.63921e+07,-66.5012
8.64355e+07,-67.1759
8.64788e+07,-67.0673
8.65222e+07,-67.0518
8.65655e+07,-65.8144
8.66089e+07,-65.61
8.66522e+07,-67.5335
8.66956e+07,-67.293
8.67389e+07,-66.4571
8.67823e+07,-67.8223
8.68256e+07,-67.7303
8.6869e+07,-66.6162
8.69123e+07,-66.5578
8.69557e+07,-66.6894
8.6999e+07,-66.4278
8.70423e+07,-66.808
8.70857e+07,-66.7483
8.7129e+07,-67.0043
8.71724e+07,-66.4705
8.72157e+07,-67.2917
8.72591e+07,-66.9964
8.73024e+07,-67.2757
8.73458e+07,-67.0729
8.73891e+07,-67.8545
8.74325e+07,-66.4986
8.74758e+07,-66.441
8.75192e+07,-67.3465
8.75625e+07,-66.9575
8.76059e+07,-66.2423
8.76492e+07,-66.8215
8.76926e+07,-67.0336
8.77359e+07,-66.6949
8.77793e+07,-66.2279
8.78226e+07,-66.5483
8.7866e+07,-66.476
8.79093e+07,-66.8509
8.79527e+07,-66.7909
8.7996e+07,-67.4092
8.80393e+07,-68.2058
8.80827e+07,-66.4467
8.8126e+07,-65.945
8.81694e+07,-67.8527
8.82127e+07,-67.6196
8.82561e+07,-66.9864
8.82994e+07,-67.6688
8.83428e+07,-67.3764
8.83861e+07,-68.0397
8.84295e+07,-67.1789
8.84728e+07,-67.0856
8.85162e+07,-65.9237
8.85595e+07,-65.6053
8.86029e+07,-67.4479
8.86462e+07,-67.8178
8.86896e+07,-67.6349
8.87329e+07,-67.3755
8.87763e+07,-67.6511
8.88196e+07,-67.9018
8.8863e+07,-67.5444
8.89063e+07,-66.6921
8.89496e+07,-67.9953
8.8993e+07,-66.6038
8.90363e+07,-65.8485
8.90797e+07,-67.5684
8.9123e+07,-67.6585
8.91664e+07,-67.3425
8.92097e+07,-66.2736
8.92531e+07,-67.4625
8.92964e+07,-66.7504
8.93398e+07,-67.5841
8.93831e+07,-68.1675
8.94265e+07,-65.8476
8.94698e+07,-67.5186
8.95132e+07,-66.1888
8.95565e+07,-68.9157
8.95999e+07,-67.6987
8.96432e+07,-67.6244
8.96866e+07,-68.5971
8.97299e+07,-67.9166
8.97733e+07,-67.8319
8.98166e+07,-68.8108
8.986e+07,-68.088
8.99033e+07,-68.5325
8.99466e+07,-65.927
8.999e+07,-68.6425
9.00333e+07,-67.7559
9.00767e+07,-68.2803
9.012e+07,-68.1482
9.01634e+07,-67.3084
9.02067e+07,-68.0612
9.02501e+07,-68.1741
9.02934e+07,-68.4227
9.03368e+07,-68.7626
9.03801e+07,-69.2639
9.04235e+07,-68.8093
9.04668e+07,-66.8748
9.05102e+07,-68.1211
9.05535e+07,-68.3503
9.05969e+07,-67.4754
9.06402e+07,-68.2967
9.06836e+07,-67.8298
9.07269e+07,-68.5214
9.07703e+07,-67.838
9.08136e+07,-68.4035
9.0857e+07,-67.1108
9.09003e+07,-68.4664
9.09436e+07,-69.0179
9.0987e+07,-68.6308
9.10303e+07,-68.9504
9.10737e+07,-69.0272
9.1117e+07,-68.5204
9.11604e+07,-69.4426
9.12037e+07,-68.1894
9.12471e+07,-68.6117
9.12904e+07,-68.5749
9.13338e+07,-68.8639
9.13771e+07,-69.1726
9.14205e+07,-69.1235
9.14638e+07,-68.4923
9.15072e+07,-68.4018
9.15505e+07,-68.5103
9.15939e+07,-67.1634
9.16372e+07,-68.8442
9.16806e+07,-69.1425
9.17239e+07,-68.5008
9.17673e+07,-68.0574
9.18106e+07,-68.4824
9.1854e+07,-67.8522
9.18973e+07,-67.8859
9.19406e+07,-68.6562
9.1984e+07,-68.0224
9.20273e+07,-68.3289
9.20707e+07,-67.6514
9.2114e+07,-68.3109
9.21574e+07,-68.0998
9.22007e+07,-67.7757
9.22441e+07,-67.3192
9.22874e+07,-66.3226
9.23308e+07,-66.8779
9.23741e+07,-66.4795
9.24175e+07,-67.107
9.24608e+07,-66.8024
9.25042e+07,-66.5953
9.25475e+07,-66.8698
9.25909e+07,-67.1066
9.26342e+07,-66.595
9.26776e+07,-66.6095
9.27209e+07,-66.1463
9.27643e+07,-67.6745
9.28076e+07,-65.988
9.2851e+07,-66.8015
9.28943e+07,-67.0827
9.29376e+07,-66.6529
9.2981e+07,-66.5142
9.30243e+07,-66.9216
9.30677e+07,-66.2924
9.3111e+07,-64.8462
9.31544e+07,-65.9329
9.31977e+07,-65.7984
9.32411e+07,-66.159
9.32844e+07,-65.2118
9.33278e+07,-66.3769
9.33711e+07,-64.8695
9.34145e+07,-64.7682
9.34578e+07,-66.2633
9.35012e+07,-66.096
9.35445e+07,-65.9658
9.35879e+07,-65.2925
9.36312e+07,-66.1303
9.36746e+07,-65.6387
9.37179e+07,-65.5929
9.37613e+07,-65.4507
9.38046e+07,-64.5798
9.38479e+07,-65.4249
9.38913e+07,-66.3187
9.39346e+07,-65.1667
9.3978e+07,-66.033
9.40213e+07,-66.4252
9.40647e+07,-66.3822
9.4108e+07,-66.5915
9.41514e+07,-65.2409
9.41947e+07,-66.5839
9.42381e+07,-64.6078
9.42814e+07,-66.591
9.43248e+07,-65.2593
9.43681e+07,-67.3699
9.44115e+07,-66.6788
9.44548e+07,-67.3298
9.44982e+07,-67.1253
9.45415e+07,-67.6951
9.45849e+07,-67.5063
9.46282e+07,-68.659
9.46716e+07,-67.3931
9.47149e+07,-67.0167
9.47583e+07,-67.8368
9.48016e+07,-67.6862
9.48449e+07,-68.1718
9.48883e+07,-68.0585
9.49316e+07,-68.8742
9.4975e+07,-68.2862
9.50183e+07,-69.5763
9.50617e+07,-69.2427
9.5105e+07,-70.0635
9.51484e+07,-69.8375
9.51917e+07,-68.0665
9.52351e+07,-69.9549
9.52784e+07,-68.8733
9.53218e+07,-69.1044
9.53651e+07,-68.8352
9.54085e+07,-68.4646
9.54518e+07,-70.6838
9.54952e+07,-69.6372
9.55385e+07,-70.4184
9.55819e+07,-70.754
9.56252e+07,-69.954
9.56686e+07,-70.1498
9.57119e+07,-71.3268
9.57553e+07,-70.452
9.57986e+07,-71.3392
9.58419e+07,-71.0169
9.58853e+07,-70.1713
9.59286e+07,-71.8726
9.5972e+07,-70.9199
9.60153e+07,-71.7392
9.60587e+07,-70.566
9.6102e+07,-71.0407
9.61454e+07,-71.0895
9.61887e+07,-71.6075
9.62321e+07,-71.016
9.62754e+07,-71.0159
9.63188e+07,-70.3712
9.63621e+07,-71.7251
9.64055e+07,-71.0766
9.64488e+07,-70.823
9.64922e+07,-71.1256
9.65355e+07,-72.5552
9.65789e+07,-70.6694
9.66222e+07,-71.9248
9.66656e+07,-72.1852
9.67089e+07,-71.4642
9.67523e+07,-72.3679
9.67956e+07,-71.7771
9.68389e+07,-71.6321
9.68823e+07,-72.1708
9.69256e+07,-72.8048
9.6969e+07,-71.1738
9.70123e+07,-71.3111
9.70557e+07,-72.3388
9.7099e+07,-72.5393
9.71424e+07,-70.762
9.71857e+07,-71.71
9.72291e+07,-72.17
9.72724e+07,-72.3666
9.73158e+07,-72.1005
9.73591e+07,-71.8424
9.74025e+07,-72.1835
9.74458e+07,-72.2954
9.74892e+07,-71.9227
9.75325e+07,-72.4661
9.75759e+07,-72.3092
9.76192e+07,-72.2669
9.76626e+07,-72.2668
9.77059e+07,-72.2948
9.77492e+07,-71.1968
9.77926e+07,-72.5959
9.78359e+07,-71.0243
9.78793e+07,-71.6165
9.79226e+07,-71.9352
9.7966e+07,-71.8677
9.80093e+07,-72.1681
9.80527e+07,-72.3648
9.8096e+07,-71.0603
9.81394e+07,-71.4736
9.81827e+07,-72.6242
9.82261e+07,-72.6387
9.82694e+07,-72.3358
9.83128e+07,-71.2078
9.83561e+07,-72.7864
9.83995e+07,-71.8935
9.84428e+07,-70.6883
9.84862e+07,-71.853
9.85295e+07,-70.9137
9.85729e+07,-71.3832
9.86162e+07,-71.7197
9.86596e+07,-72.3207
9.87029e+07,-70.7819
9.87462e+07,-71.2567
9.87896e+07,-71.2566
9.88329e+07,-71.2941
9.88763e+07,-71.5881
9.89196e+07,-70.2863
9.8963e+07,-70.49
9.90063e+07,-71.1937
9.90497e+07,-71.0336
9.9093e+07,-70.7455
9.91364e+07,-69.3426
9.91797e+07,-70.0211
9.92231e+07,-70.7452
9.92664e+07,-70.6863
9.93098e+07,-70.119
9.93531e+07,-69.0751
9.93965e+07,-69.9019
9.94398e+07,-69.806
9.94832e+07,-68.7125
9.95265e+07,-69.5758
9.95699e+07,-69.5038
9.96132e+07,-70.0527
9.96566e+07,-68.2218
9.96999e+07,-68.5089
9.97432e+07,-68.8721
9.97866e+07,-69.0838
9.98299e+07,-68.2214
9.98733e+07,-67.8922
9.99166e+07,-69.2807
9.996e+07,-69.0445
1.00003e+08,-67.7737
1.00047e+08,-68.805
1.0009e+08,-68.6737
1.00133e+08,-68.8143
1.00177e+08,-68.2648
1.0022e+08,-68.2028
1.00263e+08,-68.5992
1.00307e+08,-68.5715
1.0035e+08,-68.2733
1.00393e+08,-68.0886
1.00437e+08,-68.8324
1.0048e+08,-68.7851
1.00524e+08,-68.6727
1.00567e+08,-70.0395
1.0061e+08,-68.5984
1.00654e+08,-68.1316
1.00697e+08,-69.6767
1.0074e+08,-69.2588
1.00784e+08,-68.6164
1.00827e+08,-69.7603
1.0087e+08,-70.1703
1.00914e+08,-69.813
1.00957e+08,-70.5658
1.01e+08,-70.647
1.01044e+08,-70.8596
1.01087e+08,-70.5308
1.0113e+08,-70.3709
1.01174e+08,-70.8833
1.01217e+08,-69.8229
1.0126e+08,-71.6345
1.01304e+08,-71.6344
1.01347e+08,-71.1262
1.0139e+08,-72.1599
1.01434e+08,-72.1459
1.01477e+08,-71.8324
1.01521e+08,-72.0766
1.01564e+08,-71.6862
1.01607e+08,-72.7339
1.01651e+08,-71.5166
1.01694e+08,-72.7337
1.01737e+08,-73.3647
1.01781e+08,-71.7916
1.01824e+08,-73.0818
1.01867e+08,-71.6723
1.01911e+08,-72.4699
1.01954e+08,-73.7728
1.01997e+08,-73.2216
1.02041e+08,-72.2141
1.02084e+08,-73.4602
1.02127e+08,-72.4983
1.02171e+08,-72.2278
1.02214e+08,-73.3158
1.02257e+08,-74.7638
1.02301e+08,-72.7174
1.02344e+08,-73.9068
1.02387e+08,-74.148
1.02431e+08,-74.0956
1.02474e+08,-72.7318
1.02518e+08,-74.596
1.02561e+08,-74.0606
1.02604e+08,-73.4107
1.02648e+08,-74.0431
1.02691e+08,-74.1823
1.02734e+08,-74.4134
1.02778e+08,-74.4494
1.02821e+08,-73.507
1.02864e+08,-74.7063
1.02908e+08,-74.8756
1.02951e+08,-75.0676
1.02994e+08,-74.164
1.03038e+08,-75.4447
1.03081e+08,-74.8183
1.03124e+08,-73.1875
1.03168e+08,-74.3227
1.03211e+08,-75.0476
1.03254e+08,-73.6699
1.03298e+08,-74.8556
1.03341e+08,-74.5025
1.03384e+08,-75.2631
1.03428e+08,-74.1106
1.03471e+08,-74.7797
1.03515e+08,-75.2034
1.03558e+08,-75.5455
1.03601e+08,-75.2032
1.03645e+08,-74.7044
1.03688e+08,-75.2823
1.03731e+08,-74.393
1.03775e+08,-74.4289
1.03818e+08,-74.4288
1.03861e+08,-74.321
1.03905e+08,-75.4223
1.03948e+08,-74.8162
1.03991e+08,-75.3415
1.04035e+08,-74.6292
1.04078e+08,-74.3742
1.04121e+08,-76.161
1.04165e+08,-74.8157
1.04208e+08,-74.9872
1.04251e+08,-75.3009
1.04295e+08,-76.0077
1.04338e+08,-74.9869
1.04381e+08,-75.0642
1.04425e+08,-74.4998
1.04468e+08,-75.4412
1.04512e+08,-75.1616
1.04555e+08,-74.0213
1.04598e+08,-75.2602
1.04642e+08,-75.6047
1.04685e+08,-75.2401
1.04728e+08,-74.4809
1.04772e+08,-75.2201
1.04815e+08,-75.2795
1.04858e+08,-75.7082
1.04902e+08,-75.2396
1.04945e+08,-75.1605
1.04988e+08,-74.8515
1.05032e+08,-73.8158
1.05075e+08,-74.5714
1.05118e+08,-74.9466
1.05162e+08,-74.8892
1.05205e+08,-74.8132
1.05248e+08,-73.9168
1.05292e+08,-74.927
1.05335e+08,-74.2464
1.05378e+08,-75.5001
1.05422e+08,-74.9267
1.05465e+08,-74.9842
1.05509e+08,-75.0227
1.05552e+08,-74.2282
1.05595e+08,-74.4065
1.05639e+08,-74.6624
1.05682e+08,-74.2456
1.05725e+08,-74.8498
1.05769e+08,-74.8687
1.05812e+08,-72.6646
1.05855e+08,-74.9257
1.05899e+08,-74.2097
1.05942e+08,-73.532
1.05985e+08,-73.3067
1.06029e+08,-74.849
1.06072e+08,-74.4233
1.06115e+08,-75.5599
1.06159e+08,-75.0018
1.06202e+08,-74.1563
1.06245e+08,-74.4773
1.06289e+08,-74.5502
1.06332e+08,-74.6793
1.06375e+08,-73.6789
1.06419e+08,-73.4659
1.06462e+08,-75.1765
1.06506e+08,-73.3852
1.06549e+08,-74.173
1.06592e+08,-73.242
1.06636e+08,-73.4492
1.06679e+08,-73.226
1.06722e+08,-73.8623
1.06766e+08,-74.1375
1.06809e+08,-74.8093
1.06852e+08,-73.93
1.06896e+08,-73.6942
1.06939e+08,-73.3682
1.06982e+08,-73.2884
1.07026e+08,-73.9296
1.07069e+08,-73.8615
1.07112e+08,-74.0324
1.07156e+08,-72.7205
1.07199e+08,-73.4479
1.07242e+08,-72.6611
1.07286e+08,-71.8587
1.07329e+08,-72.9001
1.07372e+08,-73.0068
1.07416e+08,-72.6313
1.07459e+08,-73.1302
1.07503e+08,-73.5609
1.07546e+08,-72.1451
1.07589e+08,-73.5935
1.07633e+08,-73.8941
1.07676e+08,-73.4629
1.07719e+08,-73.6591
1.07763e+08,-73.3662
1.07806e+08,-72.8386
1.07849e+08,-73.979
1.07893e+08,-73.0363
1.07936e+08,-73.1759
1.07979e+08,-72.4842
1.08023e+08,-73.9785
1.08066e+08,-74.1169
1.08109e+08,-74.7123
1.08153e+08,-73.9782
1.08196e+08,-74.7495
1.08239e+08,-74.7494
1.08283e+08,-74.1163
1.08326e+08,-75.0547
1.08369e+08,-75.271
1.08413e+08,-74.6187
1.08456e+08,-74.8242
1.08499e+08,-75.2707
1.08543e+08,-74.2741
1.08586e+08,-72.9427
1.0863e+08,-75.2306
1.08673e+08,-75.0344
1.08716e+08,-74.3809
1.0876e+08,-75.31
1.08803e+08,-75.5123
1.08846e+08,-75.2499
1.0889e+08,-75.23
1.08933e+08,-74.673
1.08976e+08,-75.1116
1.0902e+08,-74.7663
1.09063e+08,-74.1145
1.09106e+08,-74.1144
1.0915e+08,-76.0176
1.09193e+08,-73.8057
1.09236e+08,-76.0174
1.0928e+08,-75.9094
1.09323e+08,-74.8411
1.09366e+08,-75.3085
1.0941e+08,-76.1704
1.09453e+08,-75.6762
1.09496e+08,-75.1495
1.0954e+08,-76.3487
1.09583e+08,-76.2365
1.09627e+08,-75.8658
1.0967e+08,-76.3484
1.09713e+08,-75.6547
1.09757e+08,-75.2876
1.098e+08,-76.6932
1.09843e+08,-75.6962
1.09887e+08,-74.5966
1.0993e+08,-76.147
1.09973e+08,-75.4687
1.10017e+08,-75.3471
1.1006e+08,-74.1821
1.10103e+08,-74.1294
1.10147e+08,-75.6955
1.1019e+08,-75.509
1.10233e+08,-75.2864
1.10277e+08,-75.7161
1.1032e+08,-76.1461
1.10363e+08,-75.2264
1.10407e+08,-75.8426
1.1045e+08,-76.3239
1.10493e+08,-76.4828
1.10537e+08,-75.0493
1.1058e+08,-76.4369
1.10624e+08,-75.0881
1.10667e+08,-75.7995
1.1071e+08,-76.1451
1.10754e+08,-76.8329
1.10797e+08,-75.7359
1.1084e+08,-75.7568
1.10884e+08,-76.0352
1.10927e+08,-75.7989
1.1097e+08,-76.1666
1.11014e+08,-77.0253
1.11057e+08,-77.0252
1.111e+08,-76.5273
1.11144e+08,-76.6665
1.11187e+08,-76.737
1.1123e+08,-76.1219
1.11274e+08,-76.9036
1.11317e+08,-75.3239
1.1136e+08,-76.0996
1.11404e+08,-75.2239
1.11447e+08,-76.4576
1.1149e+08,-76.3214
1.11534e+08,-76.2989
1.11577e+08,-75.692
1.11621e+08,-75.7129
1.11664e+08,-77.2212
1.11707e+08,-77.2711
1.11751e+08,-76.1868
1.11794e+08,-76.0767
1.11837e+08,-76.1424
1.11881e+08,-75.546
1.11924e+08,-75.6703
1.11967e+08,-76.2308
1.12011e+08,-75.7329
1.12054e+08,-76.5944
1.12097e+08,-75.9026
1.12141e+08,-77.22
1.12184e+08,-76.4102
1.12227e+08,-76.5708
1.12271e+08,-75.5451
1.12314e+08,-76.2077
1.12357e+08,-77.1946
1.12401e+08,-76.1853
1.12444e+08,-77.3958
1.12487e+08,-75.9447
1.12531e+08,-76.2965
1.12574e+08,-75.5443
1.12618e+08,-76.1405
1.12661e+08,-76.3186
1.12704e+08,-76.409
1.12748e+08,-75.5234
1.12791e+08,-75.731
1.12834e+08,-76.7094
1.12878e+08,-75.9653
1.12921e+08,-76.184
1.12964e+08,-76.1397
1.13008e+08,-76.0737
1.13051e+08,-76.4082
1.13094e+08,-76.3401
1.13138e+08,-76.295
1.13181e+08,-75.9646
1.13224e+08,-74.9655
1.13268e+08,-75.8784
1.13311e+08,-76.0076
1.13354e+08,-76.2052
1.13398e+08,-75.0424
1.13441e+08,-76.0073
1.13484e+08,-76.3166
1.13528e+08,-75.2188
1.13571e+08,-75.7502
1.13615e+08,-76.3163
1.13658e+08,-76.5673
1.13701e+08,-76.2043
1.13745e+08,-77.1169
1.13788e+08,-75.792
1.13831e+08,-75.7919
1.13875e+08,-75.2577
1.13918e+08,-75.8554
1.13961e+08,-76.1594
1.14005e+08,-75.1584
1.14048e+08,-76.1592
1.14091e+08,-74.7353
1.14135e+08,-77.2152
1.14178e+08,-75.257
1.14221e+08,-75.8975
1.14265e+08,-75.3771
1.14308e+08,-75.9403
1.14351e+08,-76.4735
1.14395e+08,-76.2249
1.14438e+08,-76.1141
1.14481e+08,-76.4503
1.14525e+08,-76.2469
1.14568e+08,-75.9397
1.14612e+08,-75.336
1.14655e+08,-74.8282
1.14698e+08,-75.9826
1.14742e+08,-74.2414
1.14785e+08,-74.7901
1.14828e+08,-75.7261
1.14872e+08,-75.4568
1.14915e+08,-76.5412
1.14958e+08,-74.0828
1.15002e+08,-75.3754
1.15045e+08,-76.1568
1.15088e+08,-75.5177
1.15132e+08,-75.6625
1.15175e+08,-76.0904
1.15218e+08,-76.5636
1.15262e+08,-76.0029
1.15305e+08,-75.6205
1.15348e+08,-76.2897
1.15392e+08,-75.5375
1.15435e+08,-75.0765
1.15478e+08,-76.4251
1.15522e+08,-76.3568
1.15565e+08,-76.1776
1.15609e+08,-75.9804
1.15652e+08,-75.2137
1.15695e+08,-75.3737
1.15739e+08,-76.0235
1.15782e+08,-75.851
1.15825e+08,-75.9366
1.15869e+08,-76.5852
1.15912e+08,-76.2212
1.15955e+08,-76.7255
1.15999e+08,-76.4466
1.16042e+08,-76.5848
1.16085e+08,-76.4464
1.16129e+08,-76.3328
1.16172e+08,-75.1138
1.16215e+08,-75.7228
1.16259e+08,-76.6075
1.16302e+08,-75.9787
1.16345e+08,-76.3323
1.16389e+08,-75.9353
1.16432e+08,-74.9577
1.16475e+08,-77.1598
1.16519e+08,-76.3998
1.16562e+08,-74.5254
1.16606e+08,-77.1595
1.16649e+08,-76.537
1.16692e+08,-76.7237
1.16736e+08,-76.7472
1.16779e+08,-76.5136
1.16822e+08,-76.3086
1.16866e+08,-75.999
1.16909e+08,-76.5827
1.16952e+08,-77.0845
1.16996e+08,-75.5337
1.17039e+08,-76.1741
1.17082e+08,-76.7939
1.17126e+08,-75.7206
1.17169e+08,-76.6755
1.17212e+08,-75.5331
1.17256e+08,-76.8412
1.17299e+08,-75.7623
1.17342e+08,-75.4305
1.17386e+08,-76.1954
1.17429e+08,-77.0588
1.17472e+08,-76.3748
1.17516e+08,-76.6981
1.17559e+08,-75.5943
1.17603e+08,-76.9124
1.17646e+08,-76.745
1.17689e+08,-76.8401
1.17733e+08,-77.4086
1.17776e+08,-76.0404
1.17819e+08,-76.8878
1.17863e+08,-76.2165
1.17906e+08,-75.9748
1.17949e+08,-75.7608
1.17993e+08,-76.6267
1.18036e+08,-74.8772
1.18079e+08,-76.8392
1.18123e+08,-76.0396
1.18166e+08,-76.6262
1.18209e+08,-76.3504
1.18253e+08,-76.3956
1.18296e+08,-76.1269
1.18339e+08,-75.8022
1.18383e+08,-76.3274
1.18426e+08,-76.017
1.18469e+08,-76.8144
1.18513e+08,-77.0073
1.18556e+08,-76.4634
1.186e+08,-76.6252
1.18643e+08,-76.1924
1.18686e+08,-77.1297
1.1873e+08,-76.8616
1.18773e+08,-76.555
1.18816e+08,-77.229
1.1886e+08,-76.1035
1.18903e+08,-77.0798
1.18946e+08,-77.304
1.1899e+08,-76.1916
1.19033e+08,-76.2584
1.19076e+08,-76.8129
1.1912e+08,-76.8367
1.19163e+08,-76.1912
1.19206e+08,-77.0791
1.1925e+08,-76.8843
1.19293e+08,-76.577
1.19336e+08,-75.3246
1.1938e+08,-76.0147
1.19423e+08,-75.8635
1.19466e+08,-77.1031
1.1951e+08,-76.4382
1.19553e+08,-75.4456
1.19597e+08,-77.2773
1.1964e+08,-76.5761
1.19683e+08,-76.4607
1.19727e+08,-77.1025
1.1977e+08,-77.2017
1.19813e+08,-76.4146
1.19857e+08,-75.9701
1.199e+08,-77.0284
1.19943e+08,-77.0773
1.19987e+08,-77.2763
1.2003e+08,-77.0525
1.20073e+08,-75.9264
1.20117e+08,-76.2334
1.2016e+08,-76.7153
1.20203e+08,-76.4137
1.20247e+08,-74.9872
1.2029e+08,-76.3002
1.20333e+08,-76.7623
1.20377e+08,-76.3226
1.2042e+08,-76.762
1.20463e+08,-76.9782
1.20507e+08,-77.4789
1.2055e+08,-76.3447
1.20594e+08,-76.6204
1.20637e+08,-76.0992
1.2068e+08,-76.5504
1.20724e+08,-77.1248
1.20767e+08,-74.3339
1.2081e+08,-75.8388
1.20854e+08,-75.2011
1.20897e+08,-76.8324
1.2094e+08,-76.1426
1.20984e+08,-76.4346
1.21027e+08,-75.5652
1.2107e+08,-76.4803
1.21114e+08,-75.7743
1.21157e+08,-76.48
1.212e+08,-76.0978
1.21244e+08,-75.5647
1.21287e+08,-74.8885
1.2133e+08,-75.945
1.21374e+08,-76.5025
1.21417e+08,-76.1414
1.2146e+08,-76.6417
1.21504e+08,-75.8585
1.21547e+08,-76.712
1.21591e+08,-76.4103
1.21634e+08,-76.9511
1.21677e+08,-76.6646
1.21721e+08,-77.0485
1.21764e+08,-76.009
1.21807e+08,-76.9507
1.21851e+08,-76.854
1.21894e+08,-75.6254
1.21937e+08,-74.4941
1.21981e+08,-76.074
1.22024e+08,-75.9433
1.22067e+08,-76.3864
1.22111e+08,-75.419
1.22154e+08,-76.0517
1.22197e+08,-77.0965
1.22241e+08,-77.2709
1.22284e+08,-75.6244
1.22327e+08,-76.6396
1.22371e+08,-76.0293
1.22414e+08,-74.6219
1.22457e+08,-76.0073
1.22501e+08,-76.4081
1.22544e+08,-76.2948
1.22588e+08,-76.9246
1.22631e+08,-76.7094
1.22674e+08,-76.317
1.22718e+08,-75.5611
1.22761e+08,-77.1199
1.22804e+08,-75.9847
1.22848e+08,-75.6023
1.22891e+08,-75.6438
1.22934e+08,-76.4299
1.22978e+08,-76.8754
1.23021e+08,-76.6145
1.23064e+08,-76.6144
1.23108e+08,-76.4067
1.23151e+08,-76.7555
1.23194e+08,-77.3191
1.23238e+08,-75.9837
1.23281e+08,-76.4979
1.23324e+08,-75.5184
1.23368e+08,-74.999
1.23411e+08,-76.4288
1.23454e+08,-75.7899
1.23498e+08,-76.9953
1.23541e+08,-76.9223
1.23585e+08,-76.2474
1.23628e+08,-76.6365
1.23671e+08,-77.3687
1.23715e+08,-76.9461
1.23758e+08,-76.3144
1.23801e+08,-77.4452
1.23845e+08,-76.6829
1.23888e+08,-75.9821
1.23931e+08,-76.589
1.23975e+08,-77.5222
1.24018e+08,-76.706
1.24061e+08,-76.0252
1.24105e+08,-77.2413
1.24148e+08,-77.2915
1.24191e+08,-74.5991
1.24235e+08,-77.2409
1.24278e+08,-76.0029
1.24321e+08,-76.201
1.24365e+08,-76.1122
1.24408e+08,-76.5879
1.24451e+08,-76.2453
1.24495e+08,-76.5412
1.24538e+08,-76.8716
1.24582e+08,-76.6576
1.24625e+08,-75.9154
1.24668e+08,-76.5408
1.24712e+08,-75.7023
1.24755e+08,-76.7043
1.24798e+08,-76.9435
1.24842e+08,-77.8909
1.24885e+08,-77.0163
1.24928e+08,-76.517
1.24972e+08,-77.2141
1.25015e+08,-75.5763
1.25058e+08,-76.0666
1.25102e+08,-76.6798
1.25145e+08,-77.2388
1.25188e+08,-77.6499
1.25232e+08,-75.4523
1.25275e+08,-76.8218
1.25318e+08,-76.493
1.25362e+08,-76.8696
1.25405e+08,-76.243
1.25448e+08,-77.7286
1.25492e+08,-76.2652
1.25535e+08,-75.5544
1.25579e+08,-76.1314
1.25622e+08,-76.1534
1.25665e+08,-75.3093
1.25709e+08,-75.3294
1.25752e+08,-76.9412
1.25795e+08,-75.8911
1.25839e+08,-77.0631
1.25882e+08,-76.4
1.25925e+08,-76.8203
1.25969e+08,-76.4455
1.26012e+08,-76.4914
1.26055e+08,-77.2366
1.26099e+08,-77.0625
1.26142e+08,-77.3374
1.26185e+08,-77.5428
1.26229e+08,-76.3537
1.26272e+08,-76.4219
1.26315e+08,-76.9885
1.26359e+08,-75.5317
1.26402e+08,-77.5164
1.26445e+08,-76.9638
1.26489e+08,-76.3531
1.26532e+08,-76.6529
1.26576e+08,-76.5362
1.26619e+08,-76.7234
1.26662e+08,-75.0105
1.26706e+08,-77.0857
1.26749e+08,-75.5514
1.26792e+08,-76.4206
1.26836e+08,-76.1949
1.26879e+08,-76.4893
1.26922e+08,-77.4377
1.26966e+08,-76.5121
1.27009e+08,-77.1842
1.27052e+08,-77.6454
1.27096e+08,-77.0601
1.27139e+08,-76.6514
1.27182e+08,-76.3741
1.27226e+08,-75.7173
1.27269e+08,-77.0106
1.27312e+08,-76.9374
1.27356e+08,-76.6744
1.27399e+08,-75.2251
1.27442e+08,-76.0828
1.27486e+08,-76.7213
1.27529e+08,-76.627
1.27573e+08,-76.7924
1.27616e+08,-77.2328
1.27659e+08,-76.5105
1.27703e+08,-76.2599
1.27746e+08,-76.2374
1.27789e+08,-77.2827
1.27833e+08,-76.3498
1.27876e+08,-76.0379
1.27919e+08,-76.5562
1.27963e+08,-75.6108
1.28006e+08,-76.0814
1.28049e+08,-77.0578
1.28093e+08,-75.8
1.28136e+08,-75.7786
1.28179e+08,-76.4402
1.28223e+08,-77.1315
1.28266e+08,-77.2816
1.28309e+08,-76.2809
1.28353e+08,-75.7569
1.28396e+08,-76.6016
1.28439e+08,-76.1024
1.28483e+08,-76.8862
1.28526e+08,-76.7901
1.2857e+08,-76.5779
1.28613e+08,-74.967
1.28656e+08,-76.4161
1.287e+08,-76.2575
1.28743e+08,-75.4848
1.28786e+08,-77.2803
1.2883e+08,-76.5772
1.28873e+08,-76.3247
1.28916e+08,-75.6293
1.2896e+08,-77.0802
1.29003e+08,-76.7177
1.29046e+08,-77.1295
1.2909e+08,-77.3812
1.29133e+08,-76.9088
1.29176e+08,-76.4378
1.2922e+08,-77.0304
1.29263e+08,-76.8362
1.29306e+08,-75.7334
1.2935e+08,-76.5993
1.29393e+08,-75.9255
1.29436e+08,-76.1664
1.2948e+08,-76.2556
1.29523e+08,-76.6928
1.29567e+08,-77.6657
1.2961e+08,-76.4597
1.29653e+08,-76.0775
1.29697e+08,-76.8351
1.2974e+08,-76.4594
1.29783e+08,-77.0782
1.29827e+08,-76.1655
1.2987e+08,-77.303
1.29913e+08,-76.8586
1.29957e+08,-76.2544
1.3e+08,-77.3027
