FileType,0
Number of Points,3000
Sweep Time,3e+08
Start Frequency,0
Stop Frequency,1.3e+08
Average Count,10
Average Type,1
RBW,10000
RBW Filter,0
RBW Filter BW,0
VBW,10000
Sweep Type,0
X Axis Scale,1
PreAmp State,0
Trigger Source,0
Trigger Level,-25
Trigger Edge,0
Trigger Delay Switch,0
Trigger Delay,1
Attenuation,20
Ref Level Offset,0
External Gain,0
Trace Type,0
Detector,0
Trace Math,5
Trace Math Oper1,4
Trace Math Oper2,5
Trace Math Offset,0
Trace Name,0
Full Span,1.3e+08
Y Axis Unit,0
DATA,
0,-15.2661
43347.8,-64.9122
86695.6,-36.5822
130043,-33.5501
173391,-45.2253
216739,-46.3474
260087,-45.6665
303434,-48.9207
346782,-49.3438
390130,-52.1373
433478,-53.9099
476826,-59.3417
520173,-63.2185
563521,-65.9945
606869,-68.6052
650217,-68.7378
693565,-70.6997
736912,-71.1162
780260,-71.4487
823608,-70.942
866956,-71.4746
910303,-71.5534
953651,-71.8213
996999,-72.3257
1.04035e+06,-71.7389
1.08369e+06,-72.7682
1.12704e+06,-72.2661
1.17039e+06,-71.4716
1.21374e+06,-69.8526
1.25709e+06,-70.184
1.30043e+06,-68.5249
1.34378e+06,-69.7644
1.38713e+06,-67.4388
1.43048e+06,-66.8653
1.47382e+06,-60.8982
1.51717e+06,-61.4825
1.56052e+06,-59.2697
1.60387e+06,-63.8595
1.64722e+06,-66.1957
1.69056e+06,-64.8991
1.73391e+06,-70.4063
1.77726e+06,-70.4057
1.82061e+06,-71.5683
1.86395e+06,-71.4624
1.9073e+06,-71.2295
1.95065e+06,-72.0288
1.994e+06,-71.9726
2.03735e+06,-70.8549
2.08069e+06,-71.8901
2.12404e+06,-71.6997
2.16739e+06,-71.2032
2.21074e+06,-71.3053
2.25408e+06,-70.403
2.29743e+06,-72.1975
2.34078e+06,-69.8423
2.38413e+06,-69.9515
2.42748e+06,-64.4753
2.47082e+06,-62.0058
2.51417e+06,-69.5223
2.55752e+06,-70.4258
2.60087e+06,-70.4723
2.64421e+06,-69.9512
2.68756e+06,-70.3793
2.73091e+06,-69.6911
2.77426e+06,-70.1287
2.81761e+06,-68.7227
2.86095e+06,-69.5428
2.9043e+06,-69.907
2.94765e+06,-68.994
2.991e+06,-69.6908
3.03434e+06,-69.6058
3.07769e+06,-70.2869
3.12104e+06,-69.1327
3.16439e+06,-69.5215
3.20774e+06,-69.8629
3.25108e+06,-68.4774
3.29443e+06,-69.0727
3.33778e+06,-68.2574
3.38113e+06,-68.6459
3.42447e+06,-69.1524
3.46782e+06,-68.5892
3.51117e+06,-68.1851
3.55452e+06,-68.2934
3.59787e+06,-68.7984
3.64121e+06,-68.7791
3.68456e+06,-68.257
3.72791e+06,-67.25
3.77126e+06,-68.514
3.8146e+06,-67.9895
3.85795e+06,-67.0901
3.9013e+06,-67.7642
3.94465e+06,-66.6279
3.988e+06,-68.0775
4.03134e+06,-67.0269
4.07469e+06,-68.7978
4.11804e+06,-66.6277
4.16139e+06,-67.9018
4.20473e+06,-67.4449
4.24808e+06,-66.9796
4.29143e+06,-66.7941
4.33478e+06,-67.0737
4.37813e+06,-66.8246
4.42147e+06,-66.033
4.46482e+06,-66.2601
4.50817e+06,-67.884
4.55152e+06,-67.8666
4.59486e+06,-66.2887
4.63821e+06,-66.4636
4.68156e+06,-67.8147
4.72491e+06,-66.1881
4.76826e+06,-67.1525
4.8116e+06,-67.5103
4.85495e+06,-67.9882
4.8983e+06,-66.552
4.94165e+06,-66.7627
4.98499e+06,-66.4044
5.02834e+06,-66.3752
5.07169e+06,-67.3455
5.11504e+06,-66.7169
5.15839e+06,-66.6866
5.20173e+06,-67.4767
5.24508e+06,-66.5516
5.28843e+06,-65.2937
5.33178e+06,-67.1998
5.37513e+06,-66.6411
5.41847e+06,-66.5365
5.46182e+06,-67.1996
5.50517e+06,-65.6213
5.54852e+06,-67.2477
5.59186e+06,-66.5959
5.63521e+06,-66.1019
5.67856e+06,-66.7923
5.72191e+06,-65.6612
5.76526e+06,-66.8845
5.8086e+06,-66.418
5.85195e+06,-67.0089
5.8953e+06,-66.5211
5.93865e+06,-65.3834
5.98199e+06,-66.6705
6.02534e+06,-66.2294
6.06869e+06,-65.892
6.11204e+06,-66.915
6.15539e+06,-66.3884
6.19873e+06,-66.5355
6.24208e+06,-67.3278
6.28543e+06,-66.853
6.32878e+06,-66.9926
6.37212e+06,-64.447
6.41547e+06,-67.0554
6.45882e+06,-66.5352
6.50217e+06,-64.9887
6.54552e+06,-65.6199
6.58886e+06,-66.0724
6.63221e+06,-66.8371
6.67556e+06,-64.9266
6.71891e+06,-66.2429
6.76225e+06,-65.2405
6.8056e+06,-65.6196
6.84895e+06,-65.5663
6.8923e+06,-64.9017
6.93565e+06,-65.1386
6.97899e+06,-65.2787
7.02234e+06,-65.1006
7.06569e+06,-66.594
7.10904e+06,-66.1567
7.15238e+06,-65.8631
7.19573e+06,-64.2155
7.23908e+06,-65.8768
7.28243e+06,-65.8218
7.32578e+06,-65.7265
7.36912e+06,-65.9457
7.41247e+06,-65.2525
7.45582e+06,-65.1001
7.49917e+06,-64.8396
7.54251e+06,-65.214
7.58586e+06,-64.9998
7.62921e+06,-64.8151
7.67256e+06,-65.5785
7.71591e+06,-64.4336
7.75925e+06,-65.037
7.8026e+06,-65.1755
7.84595e+06,-64.9005
7.8893e+06,-65.9868
7.93264e+06,-65.6988
7.97599e+06,-65.2904
8.01934e+06,-64.1128
8.06269e+06,-65.2261
8.10604e+06,-64.001
8.14938e+06,-65.0615
8.19273e+06,-65.1244
8.23608e+06,-62.6762
8.27943e+06,-64.5032
8.32277e+06,-65.099
8.36612e+06,-65.4588
8.40947e+06,-63.9343
8.45282e+06,-65.0612
8.49617e+06,-64.1234
8.53951e+06,-64.5855
8.58286e+06,-65.4323
8.62621e+06,-64.9489
8.66956e+06,-63.7273
8.7129e+06,-63.8682
8.75625e+06,-64.305
8.7996e+06,-64.9983
8.84295e+06,-63.7056
8.8863e+06,-63.8244
8.92964e+06,-62.5995
8.97299e+06,-64.5494
9.01634e+06,-64.514
9.05969e+06,-64.1003
9.10303e+06,-64.6443
9.14638e+06,-64.9482
9.18973e+06,-64.1564
9.23308e+06,-62.2294
9.27643e+06,-64.1
9.31977e+06,-63.9222
9.36312e+06,-65.2757
9.40647e+06,-63.8782
9.44982e+06,-62.9063
9.49316e+06,-62.5705
9.53651e+06,-63.9109
9.57986e+06,-64.0884
9.62321e+06,-64.122
9.66656e+06,-64.596
9.7099e+06,-64.6316
9.75325e+06,-64.2923
9.7966e+06,-64.8124
9.83995e+06,-64.3845
9.88329e+06,-63.2449
9.92664e+06,-64.021
9.96999e+06,-63.6721
1.00133e+07,-63.6185
1.00567e+07,-60.7733
1.01e+07,-64.3369
1.01434e+07,-63.7135
1.01867e+07,-63.5853
1.02301e+07,-63.3553
1.02734e+07,-63.2627
1.03168e+07,-63.7876
1.03601e+07,-64.7241
1.04035e+07,-62.7856
1.04468e+07,-63.8518
1.04902e+07,-62.9015
1.05335e+07,-63.3426
1.05769e+07,-63.5085
1.06202e+07,-63.7961
1.06636e+07,-64.275
1.07069e+07,-64.0596
1.07503e+07,-63.0275
1.07936e+07,-63.2179
1.08369e+07,-62.7149
1.08803e+07,-64.3886
1.09236e+07,-63.6007
1.0967e+07,-64.3532
1.10103e+07,-62.9563
1.10537e+07,-63.2769
1.1097e+07,-62.5234
1.11404e+07,-62.9552
1.11837e+07,-63.4723
1.12271e+07,-62.7502
1.12704e+07,-63.5662
1.13138e+07,-63.4191
1.13571e+07,-63.4292
1.14005e+07,-63.6929
1.14438e+07,-63.2841
1.14872e+07,-62.7289
1.15305e+07,-63.376
1.15739e+07,-64.3832
1.16172e+07,-63.6058
1.16606e+07,-62.306
1.17039e+07,-63.9849
1.17472e+07,-63.2002
1.17906e+07,-62.901
1.18339e+07,-62.8227
1.18773e+07,-63.6144
1.19206e+07,-62.649
1.1964e+07,-63.5399
1.20073e+07,-65.5838
1.20507e+07,-65.3059
1.2094e+07,-65.0193
1.21374e+07,-65.395
1.21807e+07,-65.7438
1.22241e+07,-65.2163
1.22674e+07,-65.4183
1.23108e+07,-66.1198
1.23541e+07,-65.7805
1.23975e+07,-66.1129
1.24408e+07,-65.6988
1.24842e+07,-65.3991
1.25275e+07,-64.8068
1.25709e+07,-65.7668
1.26142e+07,-64.5303
1.26576e+07,-64.3471
1.27009e+07,-64.75
1.27442e+07,-64.3787
1.27876e+07,-64.705
1.28309e+07,-65.1778
1.28743e+07,-64.2982
1.29176e+07,-64.4907
1.2961e+07,-64.8382
1.30043e+07,-65.6585
1.30477e+07,-65.2768
1.3091e+07,-65.714
1.31344e+07,-64.9621
1.31777e+07,-63.6885
1.32211e+07,-64.0357
1.32644e+07,-63.8524
1.33078e+07,-65.311
1.33511e+07,-64.0916
1.33945e+07,-60.9789
1.34378e+07,-63.9425
1.34812e+07,-62.1817
1.35245e+07,-53.9249
1.35679e+07,-52.8503
1.36112e+07,-60.87
1.36546e+07,-61.867
1.36979e+07,-59.4081
1.37412e+07,-61.1966
1.37846e+07,-60.9192
1.38279e+07,-60.1533
1.38713e+07,-57.8993
1.39146e+07,-57.8737
1.3958e+07,-58.9428
1.40013e+07,-59.3584
1.40447e+07,-59.4244
1.4088e+07,-58.6442
1.41314e+07,-58.939
1.41747e+07,-57.9817
1.42181e+07,-60.125
1.42614e+07,-62.3282
1.43048e+07,-62.9675
1.43481e+07,-62.3701
1.43915e+07,-61.7794
1.44348e+07,-61.4753
1.44782e+07,-63.6618
1.45215e+07,-63.2387
1.45649e+07,-63.3233
1.46082e+07,-64.4222
1.46516e+07,-64.3099
1.46949e+07,-63.0522
1.47382e+07,-65.0512
1.47816e+07,-64.6611
1.48249e+07,-64.5838
1.48683e+07,-64.4585
1.49116e+07,-64.042
1.4955e+07,-64.8219
1.49983e+07,-64.6378
1.50417e+07,-65.5063
1.5085e+07,-65.6164
1.51284e+07,-64.6482
1.51717e+07,-64.4138
1.52151e+07,-64.419
1.52584e+07,-64.7362
1.53018e+07,-64.8313
1.53451e+07,-64.7135
1.53885e+07,-65.1875
1.54318e+07,-63.9471
1.54752e+07,-64.3214
1.55185e+07,-65.6574
1.55619e+07,-63.805
1.56052e+07,-63.9818
1.56485e+07,-64.7119
1.56919e+07,-63.9202
1.57352e+07,-63.799
1.57786e+07,-64.7279
1.58219e+07,-64.9763
1.58653e+07,-63.34
1.59086e+07,-64.6661
1.5952e+07,-63.7878
1.59953e+07,-64.8614
1.60387e+07,-64.0154
1.6082e+07,-63.8726
1.61254e+07,-63.6726
1.61687e+07,-62.8446
1.62121e+07,-63.6377
1.62554e+07,-63.4334
1.62988e+07,-64.2428
1.63421e+07,-64.5374
1.63855e+07,-64.0032
1.64288e+07,-63.4614
1.64722e+07,-65.0766
1.65155e+07,-64.8756
1.65589e+07,-64.3475
1.66022e+07,-64.1052
1.66455e+07,-64.9604
1.66889e+07,-63.6499
1.67322e+07,-63.3069
1.67756e+07,-64.0681
1.68189e+07,-64.0627
1.68623e+07,-64.6831
1.69056e+07,-64.0932
1.6949e+07,-64.0105
1.69923e+07,-64.2867
1.70357e+07,-63.5941
1.7079e+07,-64.49
1.71224e+07,-63.9839
1.71657e+07,-63.6178
1.72091e+07,-64.1176
1.72524e+07,-64.159
1.72958e+07,-64.0549
1.73391e+07,-63.881
1.73825e+07,-63.3366
1.74258e+07,-64.0749
1.74692e+07,-64.0902
1.75125e+07,-62.1933
1.75559e+07,-64.1731
1.75992e+07,-64.2993
1.76425e+07,-63.5177
1.76859e+07,-63.6298
1.77292e+07,-64.1252
1.77726e+07,-63.4109
1.78159e+07,-64.4589
1.78593e+07,-64.3512
1.79026e+07,-63.9236
1.7946e+07,-63.9285
1.79893e+07,-63.9998
1.80327e+07,-63.6772
1.8076e+07,-64.6378
1.81194e+07,-63.0752
1.81627e+07,-64.0245
1.82061e+07,-64.4622
1.82494e+07,-63.6711
1.82928e+07,-63.9215
1.83361e+07,-63.785
1.83795e+07,-63.8703
1.84228e+07,-62.3059
1.84662e+07,-63.5473
1.85095e+07,-64.504
1.85529e+07,-63.5566
1.85962e+07,-63.0358
1.86395e+07,-64.7069
1.86829e+07,-63.8334
1.87262e+07,-63.4876
1.87696e+07,-62.9027
1.88129e+07,-64.7506
1.88563e+07,-64.7616
1.88996e+07,-64.7334
1.8943e+07,-63.4913
1.89863e+07,-62.495
1.90297e+07,-64.0301
1.9073e+07,-64.4522
1.91164e+07,-63.9069
1.91597e+07,-62.8465
1.92031e+07,-64.055
1.92464e+07,-64.1849
1.92898e+07,-62.9452
1.93331e+07,-63.5622
1.93765e+07,-64.5648
1.94198e+07,-63.6205
1.94632e+07,-64.2893
1.95065e+07,-64.4067
1.95498e+07,-64.3903
1.95932e+07,-64.3686
1.96365e+07,-63.067
1.96799e+07,-64.2036
1.97232e+07,-64.6622
1.97666e+07,-63.8225
1.98099e+07,-63.7972
1.98533e+07,-64.5349
1.98966e+07,-64.1448
1.994e+07,-64.0873
1.99833e+07,-64.1287
2.00267e+07,-63.8162
2.007e+07,-64.8851
2.01134e+07,-63.9374
2.01567e+07,-64.0969
2.02001e+07,-63.7855
2.02434e+07,-63.8659
2.02868e+07,-63.3026
2.03301e+07,-63.4314
2.03735e+07,-63.8604
2.04168e+07,-64.3329
2.04602e+07,-63.0129
2.05035e+07,-65.0559
2.05468e+07,-64.0128
2.05902e+07,-64.059
2.06335e+07,-64.1892
2.06769e+07,-63.8189
2.07202e+07,-64.4935
2.07636e+07,-64.2467
2.08069e+07,-64.1886
2.08503e+07,-64.3474
2.08936e+07,-63.4102
2.0937e+07,-65.0196
2.09803e+07,-64.7576
2.10237e+07,-64.7912
2.1067e+07,-64.2827
2.11104e+07,-64.3572
2.11537e+07,-65.1704
2.11971e+07,-64.3783
2.12404e+07,-64.7064
2.12838e+07,-64.7622
2.13271e+07,-63.7514
2.13705e+07,-64.7115
2.14138e+07,-64.0406
2.14572e+07,-63.3032
2.15005e+07,-62.7695
2.15438e+07,-62.7917
2.15872e+07,-62.7737
2.16305e+07,-64.5777
2.16739e+07,-63.7253
2.17172e+07,-63.1425
2.17606e+07,-63.2737
2.18039e+07,-63.34
2.18473e+07,-63.6059
2.18906e+07,-63.7345
2.1934e+07,-64.7823
2.19773e+07,-63.3346
2.20207e+07,-63.8192
2.2064e+07,-64.8213
2.21074e+07,-63.834
2.21507e+07,-63.2111
2.21941e+07,-63.8741
2.22374e+07,-63.1406
2.22808e+07,-62.8609
2.23241e+07,-63.95
2.23675e+07,-63.2009
2.24108e+07,-61.4829
2.24542e+07,-63.0657
2.24975e+07,-62.8601
2.25408e+07,-63.3041
2.25842e+07,-63.1347
2.26275e+07,-64.2031
2.26709e+07,-63.2045
2.27142e+07,-62.5754
2.27576e+07,-63.5733
2.28009e+07,-63.134
2.28443e+07,-63.7012
2.28876e+07,-62.475
2.2931e+07,-63.6959
2.29743e+07,-63.7957
2.30177e+07,-62.5048
2.3061e+07,-63.0266
2.31044e+07,-63.3784
2.31477e+07,-63.3782
2.31911e+07,-62.265
2.32344e+07,-63.3111
2.32778e+07,-63.6897
2.33211e+07,-62.6039
2.33645e+07,-63.0809
2.34078e+07,-63.3343
2.34512e+07,-63.5269
2.34945e+07,-62.201
2.35378e+07,-62.247
2.35812e+07,-64.637
2.36245e+07,-62.5635
2.36679e+07,-62.348
2.37112e+07,-62.784
2.37546e+07,-63.2666
2.37979e+07,-63.1351
2.38413e+07,-63.7575
2.38846e+07,-61.3858
2.3928e+07,-62.6898
2.39713e+07,-62.8549
2.40147e+07,-62.7695
2.4058e+07,-62.8456
2.41014e+07,-62.4448
2.41447e+07,-63.1946
2.41881e+07,-63.1337
2.42314e+07,-62.9903
2.42748e+07,-62.9217
2.43181e+07,-62.8222
2.43615e+07,-62.4267
2.44048e+07,-63.0818
2.44481e+07,-63.4361
2.44915e+07,-62.2436
2.45348e+07,-62.1931
2.45782e+07,-62.2055
2.46215e+07,-62.3361
2.46649e+07,-62.5816
2.47082e+07,-62.3316
2.47516e+07,-62.8431
2.47949e+07,-62.2425
2.48383e+07,-62.9562
2.48816e+07,-63.3434
2.4925e+07,-63.1684
2.49683e+07,-61.9038
2.50117e+07,-61.6959
2.5055e+07,-62.6549
2.50984e+07,-63.4579
2.51417e+07,-63.8941
2.51851e+07,-64.0066
2.52284e+07,-63.2567
2.52718e+07,-63.0004
2.53151e+07,-63.318
2.53585e+07,-61.8661
2.54018e+07,-63.1434
2.54451e+07,-62.6359
2.54885e+07,-63.4565
2.55318e+07,-62.6576
2.55752e+07,-63.213
2.56185e+07,-61.9177
2.56619e+07,-61.5915
2.57052e+07,-63.6366
2.57486e+07,-61.9823
2.57919e+07,-63.0908
2.58353e+07,-62.1718
2.58786e+07,-62.8256
2.5922e+07,-62.7806
2.59653e+07,-63.3682
2.60087e+07,-63.4257
2.6052e+07,-62.9154
2.60954e+07,-63.7096
2.61387e+07,-62.5067
2.61821e+07,-63.258
2.62254e+07,-63.5512
2.62688e+07,-62.9831
2.63121e+07,-64.2906
2.63555e+07,-63.4148
2.63988e+07,-62.9643
2.64421e+07,-63.458
2.64855e+07,-63.2145
2.65288e+07,-63.3185
2.65722e+07,-63.4189
2.66155e+07,-62.2192
2.66589e+07,-62.5222
2.67022e+07,-63.0459
2.67456e+07,-63.8175
2.67889e+07,-62.5174
2.68323e+07,-63.0224
2.68756e+07,-63.9492
2.6919e+07,-62.9762
2.69623e+07,-63.0728
2.70057e+07,-63.8216
2.7049e+07,-63.5727
2.70924e+07,-64.1452
2.71357e+07,-63.5773
2.71791e+07,-63.5772
2.72224e+07,-63.9582
2.72658e+07,-64.4106
2.73091e+07,-63.4743
2.73525e+07,-63.076
2.73958e+07,-63.695
2.74391e+07,-63.0387
2.74825e+07,-64.3345
2.75258e+07,-63.4396
2.75692e+07,-63.2578
2.76125e+07,-64.5072
2.76559e+07,-64.1171
2.76992e+07,-63.684
2.77426e+07,-63.3237
2.77859e+07,-62.654
2.78293e+07,-62.6362
2.78726e+07,-63.6983
2.7916e+07,-62.8635
2.79593e+07,-63.93
2.80027e+07,-64.1159
2.8046e+07,-63.6332
2.80894e+07,-62.4135
2.81327e+07,-63.8683
2.81761e+07,-62.7726
2.82194e+07,-61.8238
2.82628e+07,-62.5645
2.83061e+07,-63.7567
2.83494e+07,-62.7273
2.83928e+07,-63.8521
2.84361e+07,-63.5433
2.84795e+07,-63.746
2.85228e+07,-63.4023
2.85662e+07,-64.0722
2.86095e+07,-62.7264
2.86529e+07,-63.5867
2.86962e+07,-63.3921
2.87396e+07,-62.9423
2.87829e+07,-64.061
2.88263e+07,-62.668
2.88696e+07,-63.2579
2.8913e+07,-62.5753
2.89563e+07,-63.3337
2.89997e+07,-63.8145
2.9043e+07,-62.9003
2.90864e+07,-63.4922
2.91297e+07,-63.8749
2.91731e+07,-62.2522
2.92164e+07,-62.4396
2.92598e+07,-64.2165
2.93031e+07,-63.3372
2.93464e+07,-63.6831
2.93898e+07,-63.4137
2.94331e+07,-63.2417
2.94765e+07,-62.4344
2.95198e+07,-63.9603
2.95632e+07,-62.4815
2.96065e+07,-63.6722
2.96499e+07,-63.5146
2.96932e+07,-63.9289
2.97366e+07,-63.156
2.97799e+07,-62.5068
2.98233e+07,-62.2795
2.98666e+07,-62.9612
2.991e+07,-61.3682
2.99533e+07,-62.735
2.99967e+07,-63.0112
3.004e+07,-62.2829
3.00834e+07,-59.6142
3.01267e+07,-61.9138
3.01701e+07,-62.0692
3.02134e+07,-61.8007
3.02568e+07,-63.2293
3.03001e+07,-62.774
3.03434e+07,-62.7381
3.03868e+07,-62.5351
3.04301e+07,-62.0148
3.04735e+07,-63.2949
3.05168e+07,-62.5172
3.05602e+07,-62.7329
3.06035e+07,-62.2387
3.06469e+07,-62.247
3.06902e+07,-61.8391
3.07336e+07,-62.6922
3.07769e+07,-61.515
3.08203e+07,-62.421
3.08636e+07,-62.451
3.0907e+07,-62.665
3.09503e+07,-63.6229
3.09937e+07,-63.2126
3.1037e+07,-63.1187
3.10804e+07,-62.6202
3.11237e+07,-62.1488
3.11671e+07,-62.1947
3.12104e+07,-62.7618
3.12538e+07,-62.6638
3.12971e+07,-61.934
3.13404e+07,-62.1439
3.13838e+07,-61.8689
3.14271e+07,-61.8004
3.14705e+07,-62.4101
3.15138e+07,-62.6805
3.15572e+07,-62.905
3.16005e+07,-62.1055
3.16439e+07,-62.1137
3.16872e+07,-62.0021
3.17306e+07,-62.7913
3.17739e+07,-61.396
3.18173e+07,-61.3159
3.18606e+07,-61.2892
3.1904e+07,-62.1711
3.19473e+07,-62.8086
3.19907e+07,-61.5612
3.2034e+07,-62.6743
3.20774e+07,-61.9925
3.21207e+07,-62.5946
3.21641e+07,-62.555
3.22074e+07,-61.2729
3.22508e+07,-62.2878
3.22941e+07,-60.8926
3.23374e+07,-62.1279
3.23808e+07,-62.049
3.24241e+07,-61.5909
3.24675e+07,-62.4496
3.25108e+07,-62.8246
3.25542e+07,-63.1133
3.25975e+07,-61.0518
3.26409e+07,-62.4317
3.26842e+07,-61.8966
3.27276e+07,-62.6674
3.27709e+07,-61.9288
3.28143e+07,-63.5719
3.28576e+07,-61.7793
3.2901e+07,-62.4265
3.29443e+07,-63.1446
3.29877e+07,-62.7153
3.3031e+07,-62.6574
3.30744e+07,-62.2131
3.31177e+07,-62.0753
3.31611e+07,-62.4558
3.32044e+07,-62.8946
3.32477e+07,-62.6788
3.32911e+07,-61.2127
3.33344e+07,-60.7599
3.33778e+07,-62.7945
3.34211e+07,-61.8455
3.34645e+07,-61.599
3.35078e+07,-62.5284
3.35512e+07,-61.4203
3.35945e+07,-60.191
3.36379e+07,-60.9712
3.36812e+07,-61.528
3.37246e+07,-60.9345
3.37679e+07,-59.8123
3.38113e+07,-60.3517
3.38546e+07,-60.2906
3.3898e+07,-58.9964
3.39413e+07,-60.097
3.39847e+07,-59.6754
3.4028e+07,-59.3698
3.40714e+07,-59.6814
3.41147e+07,-59.4181
3.41581e+07,-60.7392
3.42014e+07,-59.3662
3.42447e+07,-61.068
3.42881e+07,-60.2588
3.43314e+07,-60.792
3.43748e+07,-60.2216
3.44181e+07,-62.9817
3.44615e+07,-59.8996
3.45048e+07,-61.1859
3.45482e+07,-60.211
3.45915e+07,-62.7498
3.46349e+07,-62.3218
3.46782e+07,-63.4967
3.47216e+07,-61.2301
3.47649e+07,-63.4575
3.48083e+07,-61.3356
3.48516e+07,-63.3654
3.4895e+07,-61.7321
3.49383e+07,-62.0854
3.49817e+07,-61.8078
3.5025e+07,-63.3552
3.50684e+07,-61.7954
3.51117e+07,-63.8587
3.51551e+07,-61.9244
3.51984e+07,-62.2858
3.52417e+07,-61.5302
3.52851e+07,-62.9924
3.53284e+07,-62.4136
3.53718e+07,-63.1219
3.54151e+07,-63.1078
3.54585e+07,-63.0565
3.55018e+07,-61.7779
3.55452e+07,-62.8364
3.55885e+07,-62.133
3.56319e+07,-63.5668
3.56752e+07,-62.6525
3.57186e+07,-62.2079
3.57619e+07,-61.638
3.58053e+07,-63.7904
3.58486e+07,-62.7141
3.5892e+07,-63.4099
3.59353e+07,-62.0736
3.59787e+07,-62.8711
3.6022e+07,-62.7716
3.60654e+07,-63.3803
3.61087e+07,-62.3507
3.61521e+07,-63.0401
3.61954e+07,-62.0231
3.62387e+07,-62.6505
3.62821e+07,-63.1891
3.63254e+07,-60.6502
3.63688e+07,-62.1219
3.64121e+07,-62.9562
3.64555e+07,-62.8876
3.64988e+07,-62.375
3.65422e+07,-61.6116
3.65855e+07,-61.786
3.66289e+07,-62.689
3.66722e+07,-62.4823
3.67156e+07,-61.6346
3.67589e+07,-62.4387
3.68023e+07,-60.92
3.68456e+07,-61.8697
3.6889e+07,-61.7569
3.69323e+07,-62.7953
3.69757e+07,-61.9751
3.7019e+07,-61.9137
3.70624e+07,-62.4896
3.71057e+07,-61.4848
3.7149e+07,-61.5546
3.71924e+07,-62.394
3.72357e+07,-62.2236
3.72791e+07,-62.6867
3.73224e+07,-61.6088
3.73658e+07,-62.023
3.74091e+07,-62.3589
3.74525e+07,-60.831
3.74958e+07,-62.3372
3.75392e+07,-63.1987
3.75825e+07,-61.9935
3.76259e+07,-61.4135
3.76692e+07,-62.5223
3.77126e+07,-62.1338
3.77559e+07,-62.9148
3.77993e+07,-62.5656
3.78426e+07,-62.2594
3.7886e+07,-61.3475
3.79293e+07,-61.8821
3.79727e+07,-62.7871
3.8016e+07,-60.9229
3.80594e+07,-60.63
3.81027e+07,-62.1575
3.8146e+07,-61.9505
3.81894e+07,-61.8771
3.82327e+07,-60.4281
3.82761e+07,-61.8404
3.83194e+07,-61.9458
3.83628e+07,-61.1572
3.84061e+07,-62.1355
3.84495e+07,-62.0192
3.84928e+07,-60.5411
3.85362e+07,-62.6867
3.85795e+07,-62.114
3.86229e+07,-61.3107
3.86662e+07,-61.4754
3.87096e+07,-61.2422
3.87529e+07,-62.0884
3.87963e+07,-62.0056
3.88396e+07,-61.4284
3.8883e+07,-59.7274
3.89263e+07,-62.0299
3.89697e+07,-61.1663
3.9013e+07,-60.6794
3.90564e+07,-61.1361
3.90997e+07,-61.8576
3.9143e+07,-61.2407
3.91864e+07,-60.0982
3.92297e+07,-60.6681
3.92731e+07,-61.1951
3.93164e+07,-60.629
3.93598e+07,-60.2913
3.94031e+07,-59.2873
3.94465e+07,-59.1973
3.94898e+07,-59.8979
3.95332e+07,-58.4469
3.95765e+07,-59.2837
3.96199e+07,-59.1078
3.96632e+07,-59.3105
3.97066e+07,-59.3315
3.97499e+07,-59.3222
3.97933e+07,-59.4193
3.98366e+07,-59.0424
3.988e+07,-58.8655
3.99233e+07,-60.132
3.99667e+07,-60.1517
4.001e+07,-59.8349
4.00534e+07,-60.0358
4.00967e+07,-59.4366
4.014e+07,-59.6819
4.01834e+07,-58.5242
4.02267e+07,-61.5398
4.02701e+07,-60.0844
4.03134e+07,-57.9632
4.03568e+07,-60.2776
4.04001e+07,-59.7537
4.04435e+07,-60.5307
4.04868e+07,-60.0573
4.05302e+07,-60.0177
4.05735e+07,-60.4301
4.06169e+07,-60.7518
4.06602e+07,-59.2109
4.07036e+07,-60.5751
4.07469e+07,-61.3526
4.07903e+07,-60.8227
4.08336e+07,-60.902
4.0877e+07,-61.1371
4.09203e+07,-59.6476
4.09637e+07,-60.9634
4.1007e+07,-60.0521
4.10504e+07,-60.9485
4.10937e+07,-60.9557
4.1137e+07,-60.5248
4.11804e+07,-60.7427
4.12237e+07,-59.1612
4.12671e+07,-60.2273
4.13104e+07,-58.1399
4.13538e+07,-57.9157
4.13971e+07,-60.2739
4.14405e+07,-60.3246
4.14838e+07,-60.1132
4.15272e+07,-59.7211
4.15705e+07,-60.7057
4.16139e+07,-61.4843
4.16572e+07,-59.9128
4.17006e+07,-60.6311
4.17439e+07,-61.5266
4.17873e+07,-61.4218
4.18306e+07,-61.468
4.1874e+07,-61.1859
4.19173e+07,-60.662
4.19607e+07,-61.9656
4.2004e+07,-61.163
4.20473e+07,-62.2487
4.20907e+07,-62.0974
4.2134e+07,-61.6588
4.21774e+07,-61.0842
4.22207e+07,-61.4705
4.22641e+07,-60.926
4.23074e+07,-61.4161
4.23508e+07,-62.0549
4.23941e+07,-61.7414
4.24375e+07,-61.4388
4.24808e+07,-62.686
4.25242e+07,-61.3539
4.25675e+07,-61.6256
4.26109e+07,-62.4786
4.26542e+07,-61.3535
4.26976e+07,-60.9026
4.27409e+07,-61.8975
4.27843e+07,-60.092
4.28276e+07,-60.6765
4.2871e+07,-62.4777
4.29143e+07,-61.7676
4.29577e+07,-60.5252
4.3001e+07,-61.0332
4.30443e+07,-60.3325
4.30877e+07,-61.4829
4.3131e+07,-61.1964
4.31744e+07,-61.2151
4.32177e+07,-60.9153
4.32611e+07,-61.0176
4.33044e+07,-60.021
4.33478e+07,-60.7457
4.33911e+07,-59.8679
4.34345e+07,-60.4785
4.34778e+07,-61.0722
4.35212e+07,-60.3546
4.35645e+07,-61.1987
4.36079e+07,-59.8703
4.36512e+07,-59.2812
4.36946e+07,-60.059
4.37379e+07,-60.0424
4.37813e+07,-58.9759
4.38246e+07,-59.5997
4.3868e+07,-58.4644
4.39113e+07,-60.9676
4.39547e+07,-58.0831
4.3998e+07,-60.5773
4.40413e+07,-58.2364
4.40847e+07,-58.7253
4.4128e+07,-58.2201
4.41714e+07,-59.53
4.42147e+07,-58.9627
4.42581e+07,-58.8213
4.43014e+07,-59.1236
4.43448e+07,-60.1295
4.43881e+07,-59.1411
4.44315e+07,-60.2194
4.44748e+07,-58.7693
4.45182e+07,-59.7805
4.45615e+07,-57.3657
4.46049e+07,-59.8539
4.46482e+07,-58.3067
4.46916e+07,-60.5504
4.47349e+07,-57.7887
4.47783e+07,-60.2856
4.48216e+07,-58.2176
4.4865e+07,-59.3556
4.49083e+07,-58.5102
4.49517e+07,-61.6765
4.4995e+07,-59.8011
4.50383e+07,-58.9365
4.50817e+07,-58.5289
4.5125e+07,-60.6365
4.51684e+07,-58.801
4.52117e+07,-59.9164
4.52551e+07,-59.3999
4.52984e+07,-60.7924
4.53418e+07,-60.0269
4.53851e+07,-60.9953
4.54285e+07,-60.4818
4.54718e+07,-61.8148
4.55152e+07,-60.2796
4.55585e+07,-62.0809
4.56019e+07,-59.4447
4.56452e+07,-60.5122
4.56886e+07,-59.9374
4.57319e+07,-61.1759
4.57753e+07,-59.6839
4.58186e+07,-61.1644
4.5862e+07,-59.4714
4.59053e+07,-60.1439
4.59486e+07,-60.8188
4.5992e+07,-61.8737
4.60353e+07,-61.0816
4.60787e+07,-61.3146
4.6122e+07,-60.8326
4.61654e+07,-61.9794
4.62087e+07,-60.8287
4.62521e+07,-61.1891
4.62954e+07,-60.7209
4.63388e+07,-60.897
4.63821e+07,-60.5759
4.64255e+07,-60.5547
4.64688e+07,-61.1621
4.65122e+07,-61.054
4.65555e+07,-60.3917
4.65989e+07,-61.8715
4.66422e+07,-60.0288
4.66856e+07,-61.0238
4.67289e+07,-59.8303
4.67723e+07,-58.7441
4.68156e+07,-61.1272
4.6859e+07,-60.2141
4.69023e+07,-60.363
4.69456e+07,-61.1454
4.6989e+07,-60.5492
4.70323e+07,-59.9554
4.70757e+07,-61.5232
4.7119e+07,-61.2048
4.71624e+07,-60.6965
4.72057e+07,-61.1221
4.72491e+07,-60.1026
4.72924e+07,-60.5831
4.73358e+07,-60.8031
4.73791e+07,-59.7257
4.74225e+07,-59.1958
4.74658e+07,-61.1961
4.75092e+07,-61.2487
4.75525e+07,-60.4293
4.75959e+07,-60.4395
4.76392e+07,-60.3673
4.76826e+07,-60.374
4.77259e+07,-59.8139
4.77693e+07,-59.5607
4.78126e+07,-60.5115
4.7856e+07,-61.2135
4.78993e+07,-60.56
4.79426e+07,-60.884
4.7986e+07,-60.0702
4.80293e+07,-61.3
4.80727e+07,-60.2367
4.8116e+07,-60.0466
4.81594e+07,-60.5137
4.82027e+07,-59.1901
4.82461e+07,-61.645
4.82894e+07,-60.1222
4.83328e+07,-60.4923
4.83761e+07,-59.6652
4.84195e+07,-60.3611
4.84628e+07,-61.0619
4.85062e+07,-60.7166
4.85495e+07,-60.5857
4.85929e+07,-60.2653
4.86362e+07,-59.9758
4.86796e+07,-60.9947
4.87229e+07,-60.7874
4.87663e+07,-60.5674
4.88096e+07,-61.4393
4.8853e+07,-60.9573
4.88963e+07,-60.7545
4.89396e+07,-61.2968
4.8983e+07,-60.7114
4.90263e+07,-60.083
4.90697e+07,-60.2805
4.9113e+07,-60.2364
4.91564e+07,-60.7822
4.91997e+07,-60.4304
4.92431e+07,-61.2691
4.92864e+07,-60.4232
4.93298e+07,-61.422
4.93731e+07,-60.9701
4.94165e+07,-61.1105
4.94598e+07,-60.0683
4.95032e+07,-59.636
4.95465e+07,-60.9732
4.95899e+07,-60.9109
4.96332e+07,-60.8165
4.96766e+07,-60.8851
4.97199e+07,-60.1772
4.97633e+07,-60.666
4.98066e+07,-60.4041
4.98499e+07,-61.6353
4.98933e+07,-60.6478
4.99366e+07,-59.4201
4.998e+07,-60.3692
5.00233e+07,-61.1795
5.00667e+07,-60.6933
5.011e+07,-60.4134
5.01534e+07,-60.023
5.01967e+07,-60.7036
5.02401e+07,-59.805
5.02834e+07,-61.3189
5.03268e+07,-59.0905
5.03701e+07,-60.1616
5.04135e+07,-59.2243
5.04568e+07,-59.4399
5.05002e+07,-59.037
5.05435e+07,-59.3356
5.05869e+07,-60.2787
5.06302e+07,-60.4152
5.06736e+07,-58.9139
5.07169e+07,-59.2987
5.07603e+07,-59.9653
5.08036e+07,-60.3188
5.08469e+07,-59.3773
5.08903e+07,-60.4593
5.09336e+07,-57.0324
5.0977e+07,-59.6532
5.10203e+07,-59.4597
5.10637e+07,-59.3981
5.1107e+07,-58.8175
5.11504e+07,-59.8666
5.11937e+07,-58.8862
5.12371e+07,-58.1051
5.12804e+07,-58.2219
5.13238e+07,-58.9089
5.13671e+07,-58.624
5.14105e+07,-58.5987
5.14538e+07,-58.9433
5.14972e+07,-59.1046
5.15405e+07,-58.8362
5.15839e+07,-58.9487
5.16272e+07,-57.6991
5.16706e+07,-58.4263
5.17139e+07,-58.7442
5.17573e+07,-59.4666
5.18006e+07,-59.3591
5.18439e+07,-58.5361
5.18873e+07,-58.5082
5.19306e+07,-57.3742
5.1974e+07,-59.3952
5.20173e+07,-58.7092
5.20607e+07,-57.8733
5.2104e+07,-57.9792
5.21474e+07,-59.9577
5.21907e+07,-58.5516
5.22341e+07,-56.846
5.22774e+07,-56.7821
5.23208e+07,-59.5517
5.23641e+07,-59.1672
5.24075e+07,-58.2505
5.24508e+07,-59.3784
5.24942e+07,-60.5972
5.25375e+07,-59.5013
5.25809e+07,-59.1964
5.26242e+07,-59.8457
5.26676e+07,-58.5168
5.27109e+07,-59.08
5.27543e+07,-59.5659
5.27976e+07,-60.2447
5.28409e+07,-59.3863
5.28843e+07,-59.3648
5.29276e+07,-57.9402
5.2971e+07,-60.2915
5.30143e+07,-58.9646
5.30577e+07,-58.2323
5.3101e+07,-58.8513
5.31444e+07,-60.1763
5.31877e+07,-59.0108
5.32311e+07,-59.4219
5.32744e+07,-59.7762
5.33178e+07,-58.9753
5.33611e+07,-58.6626
5.34045e+07,-59.152
5.34478e+07,-58.8762
5.34912e+07,-59.1696
5.35345e+07,-59.5603
5.35779e+07,-58.525
5.36212e+07,-59.1067
5.36646e+07,-59.3227
5.37079e+07,-59.3286
5.37513e+07,-59.6665
5.37946e+07,-57.9219
5.38379e+07,-59.3435
5.38813e+07,-60.0574
5.39246e+07,-58.8603
5.3968e+07,-59.4011
5.40113e+07,-58.9673
5.40547e+07,-59.4285
5.4098e+07,-58.68
5.41414e+07,-57.1562
5.41847e+07,-58.9726
5.42281e+07,-58.8392
5.42714e+07,-58.1007
5.43148e+07,-58.6568
5.43581e+07,-59.0159
5.44015e+07,-58.3088
5.44448e+07,-58.5112
5.44882e+07,-58.8297
5.45315e+07,-58.1795
5.45749e+07,-57.4856
5.46182e+07,-58.6615
5.46616e+07,-57.8317
5.47049e+07,-58.2485
5.47482e+07,-58.0729
5.47916e+07,-57.8878
5.48349e+07,-57.7445
5.48783e+07,-57.641
5.49216e+07,-58.5931
5.4965e+07,-58.6857
5.50083e+07,-56.4115
5.50517e+07,-58.2153
5.5095e+07,-57.0099
5.51384e+07,-58.5173
5.51817e+07,-58.2256
5.52251e+07,-58.0189
5.52684e+07,-56.7274
5.53118e+07,-55.5875
5.53551e+07,-57.886
5.53985e+07,-57.577
5.54418e+07,-57.3413
5.54852e+07,-56.5459
5.55285e+07,-56.36
5.55719e+07,-57.4603
5.56152e+07,-57.4971
5.56586e+07,-56.5409
5.57019e+07,-56.708
5.57452e+07,-56.7734
5.57886e+07,-55.7942
5.58319e+07,-58.0327
5.58753e+07,-57.4275
5.59186e+07,-57.7996
5.5962e+07,-56.9029
5.60053e+07,-56.1049
5.60487e+07,-57.1006
5.6092e+07,-55.9115
5.61354e+07,-57.1168
5.61787e+07,-54.1527
5.62221e+07,-56.9947
5.62654e+07,-55.8496
5.63088e+07,-56.4663
5.63521e+07,-55.606
5.63955e+07,-56.5541
5.64388e+07,-56.7553
5.64822e+07,-56.7983
5.65255e+07,-56.4133
5.65689e+07,-55.1947
5.66122e+07,-55.6349
5.66556e+07,-56.1492
5.66989e+07,-56.8684
5.67422e+07,-55.2473
5.67856e+07,-55.4591
5.68289e+07,-55.901
5.68723e+07,-55.6301
5.69156e+07,-56.2781
5.6959e+07,-56.2973
5.70023e+07,-55.0675
5.70457e+07,-56.0264
5.7089e+07,-54.7939
5.71324e+07,-53.8628
5.71757e+07,-56.4725
5.72191e+07,-55.0857
5.72624e+07,-55.9575
5.73058e+07,-55.2439
5.73491e+07,-55.5892
5.73925e+07,-55.7148
5.74358e+07,-55.6526
5.74792e+07,-54.134
5.75225e+07,-55.7547
5.75659e+07,-56.5398
5.76092e+07,-54.3472
5.76526e+07,-55.3831
5.76959e+07,-55.0231
5.77392e+07,-55.7663
5.77826e+07,-55.2771
5.78259e+07,-55.8616
5.78693e+07,-54.9268
5.79126e+07,-55.4914
5.7956e+07,-55.1534
5.79993e+07,-56.552
5.80427e+07,-54.0725
5.8086e+07,-56.4092
5.81294e+07,-56.118
5.81727e+07,-54.6765
5.82161e+07,-55.0871
5.82594e+07,-57.0617
5.83028e+07,-54.9184
5.83461e+07,-56.4086
5.83895e+07,-55.6245
5.84328e+07,-55.2832
5.84762e+07,-55.7263
5.85195e+07,-55.9215
5.85629e+07,-55.3655
5.86062e+07,-55.0043
5.86495e+07,-56.7474
5.86929e+07,-56.1294
5.87362e+07,-56.7382
5.87796e+07,-56.0057
5.88229e+07,-55.6016
5.88663e+07,-55.8612
5.89096e+07,-56.0324
5.8953e+07,-55.8958
5.89963e+07,-55.5399
5.90397e+07,-55.5615
5.9083e+07,-54.7747
5.91264e+07,-56.4416
5.91697e+07,-55.8584
5.92131e+07,-56.6874
5.92564e+07,-56.5956
5.92998e+07,-56.0044
5.93431e+07,-56.4959
5.93865e+07,-56.5643
5.94298e+07,-55.2904
5.94732e+07,-56.8571
5.95165e+07,-56.5197
5.95599e+07,-56.8683
5.96032e+07,-57.0211
5.96465e+07,-54.6144
5.96899e+07,-57.2146
5.97332e+07,-57.5332
5.97766e+07,-57.9389
5.98199e+07,-57.0393
5.98633e+07,-57.9543
5.99066e+07,-57.3029
5.995e+07,-57.3125
5.99933e+07,-59.4429
6.00367e+07,-58.2961
6.008e+07,-58.0848
6.01234e+07,-58.1218
6.01667e+07,-56.7846
6.02101e+07,-58.8228
6.02534e+07,-59.4331
6.02968e+07,-59.0972
6.03401e+07,-58.1001
6.03835e+07,-58.9761
6.04268e+07,-58.9177
6.04702e+07,-57.9633
6.05135e+07,-58.9787
6.05569e+07,-59.6383
6.06002e+07,-59.4384
6.06435e+07,-60.3555
6.06869e+07,-60.0058
6.07302e+07,-59.7941
6.07736e+07,-59.3398
6.08169e+07,-59.1525
6.08603e+07,-59.979
6.09036e+07,-59.8291
6.0947e+07,-60.195
6.09903e+07,-60.2693
6.10337e+07,-59.7934
6.1077e+07,-59.5993
6.11204e+07,-59.6782
6.11637e+07,-59.2902
6.12071e+07,-60.1073
6.12504e+07,-60.9578
6.12938e+07,-60.6577
6.13371e+07,-60.5762
6.13805e+07,-60.8261
6.14238e+07,-60.8332
6.14672e+07,-59.4333
6.15105e+07,-60.9351
6.15539e+07,-59.9087
6.15972e+07,-60.4637
6.16405e+07,-60.632
6.16839e+07,-60.3702
6.17272e+07,-60.3051
6.17706e+07,-59.5851
6.18139e+07,-60.2234
6.18573e+07,-60.1258
6.19006e+07,-60.7743
6.1944e+07,-60.8139
6.19873e+07,-59.432
6.20307e+07,-60.6844
6.2074e+07,-61.5454
6.21174e+07,-60.9631
6.21607e+07,-60.8569
6.22041e+07,-60.8422
6.22474e+07,-60.0649
6.22908e+07,-59.6027
6.23341e+07,-60.1884
6.23775e+07,-61.5015
6.24208e+07,-59.7805
6.24642e+07,-61.3768
6.25075e+07,-60.7011
6.25509e+07,-60.5207
6.25942e+07,-59.9782
6.26375e+07,-60.4474
6.26809e+07,-60.296
6.27242e+07,-61.4811
6.27676e+07,-60.8336
6.28109e+07,-58.5366
6.28543e+07,-60.8953
6.28976e+07,-60.4676
6.2941e+07,-60.1165
6.29843e+07,-59.8598
6.30277e+07,-60.2002
6.3071e+07,-60.4637
6.31144e+07,-60.0165
6.31577e+07,-59.7595
6.32011e+07,-61.4604
6.32444e+07,-61.2219
6.32878e+07,-59.4506
6.33311e+07,-61.0974
6.33745e+07,-60.5996
6.34178e+07,-59.7749
6.34612e+07,-60.4663
6.35045e+07,-60.6418
6.35478e+07,-60.5009
6.35912e+07,-61.409
6.36345e+07,-58.9831
6.36779e+07,-60.2359
6.37212e+07,-60.5565
6.37646e+07,-59.6656
6.38079e+07,-59.9622
6.38513e+07,-60.1915
6.38946e+07,-59.2625
6.3938e+07,-59.6874
6.39813e+07,-59.7447
6.40247e+07,-58.4011
6.4068e+07,-60.2587
6.41114e+07,-59.8701
6.41547e+07,-59.9516
6.41981e+07,-58.9554
6.42414e+07,-60.6899
6.42848e+07,-60.6613
6.43281e+07,-60.3708
6.43715e+07,-60.4052
6.44148e+07,-60.0102
6.44582e+07,-60.1029
6.45015e+07,-59.105
6.45448e+07,-58.7924
6.45882e+07,-60.5159
6.46315e+07,-58.3805
6.46749e+07,-59.7655
6.47182e+07,-59.7046
6.47616e+07,-60.0656
6.48049e+07,-59.4439
6.48483e+07,-59.0331
6.48916e+07,-59.7875
6.4935e+07,-58.8001
6.49783e+07,-59.0624
6.50217e+07,-59.4713
6.5065e+07,-60.0053
6.51084e+07,-58.6998
6.51517e+07,-57.9158
6.51951e+07,-59.7546
6.52384e+07,-59.4151
6.52818e+07,-59.5017
6.53251e+07,-59.2198
6.53685e+07,-58.8886
6.54118e+07,-59.2106
6.54552e+07,-60.2283
6.54985e+07,-58.4113
6.55418e+07,-59.0847
6.55852e+07,-59.2464
6.56285e+07,-59.6295
6.56719e+07,-58.8966
6.57152e+07,-59.4976
6.57586e+07,-57.722
6.58019e+07,-59.2067
6.58453e+07,-58.0107
6.58886e+07,-59.2185
6.5932e+07,-59.1973
6.59753e+07,-58.5542
6.60187e+07,-59.9373
6.6062e+07,-59.0008
6.61054e+07,-58.2251
6.61487e+07,-58.2979
6.61921e+07,-58.4897
6.62354e+07,-59.1099
6.62788e+07,-59.2568
6.63221e+07,-58.714
6.63655e+07,-57.2179
6.64088e+07,-58.3955
6.64522e+07,-57.9517
6.64955e+07,-58.831
6.65388e+07,-59.6495
6.65822e+07,-57.4922
6.66255e+07,-58.7019
6.66689e+07,-57.1933
6.67122e+07,-58.0112
6.67556e+07,-57.6716
6.67989e+07,-59.6584
6.68423e+07,-59.1353
6.68856e+07,-57.982
6.6929e+07,-58.3696
6.69723e+07,-58.3969
6.70157e+07,-58.7866
6.7059e+07,-57.8493
6.71024e+07,-58.4048
6.71457e+07,-60.1703
6.71891e+07,-59.3982
6.72324e+07,-57.8902
6.72758e+07,-60.4018
6.73191e+07,-60.4885
6.73625e+07,-58.5314
6.74058e+07,-59.9701
6.74491e+07,-59.9536
6.74925e+07,-59.8265
6.75358e+07,-59.7587
6.75792e+07,-58.7566
6.76225e+07,-58.768
6.76659e+07,-59.7906
6.77092e+07,-57.7964
6.77526e+07,-59.739
6.77959e+07,-59.3262
6.78393e+07,-58.9937
6.78826e+07,-58.9059
6.7926e+07,-60.1081
6.79693e+07,-59.4333
6.80127e+07,-59.9163
6.8056e+07,-59.6491
6.80994e+07,-59.8737
6.81427e+07,-59.9849
6.81861e+07,-58.3148
6.82294e+07,-58.5852
6.82728e+07,-58.9399
6.83161e+07,-59.991
6.83595e+07,-60.0505
6.84028e+07,-59.3891
6.84461e+07,-59.1017
6.84895e+07,-59.9184
6.85328e+07,-60.306
6.85762e+07,-58.9334
6.86195e+07,-59.6161
6.86629e+07,-59.6413
6.87062e+07,-58.8923
6.87496e+07,-59.8332
6.87929e+07,-59.9504
6.88363e+07,-59.5967
6.88796e+07,-59.4096
6.8923e+07,-58.6624
6.89663e+07,-59.3878
6.90097e+07,-59.4743
6.9053e+07,-59.891
6.90964e+07,-59.7518
6.91397e+07,-59.3414
6.91831e+07,-59.0023
6.92264e+07,-57.0311
6.92698e+07,-59.0168
6.93131e+07,-59.0403
6.93565e+07,-60.2292
6.93998e+07,-60.1381
6.94431e+07,-60.3381
6.94865e+07,-58.8615
6.95298e+07,-59.9981
6.95732e+07,-58.8035
6.96165e+07,-58.0149
6.96599e+07,-58.7146
6.97032e+07,-58.9951
6.97466e+07,-59.1373
6.97899e+07,-59.3889
6.98333e+07,-59.2001
6.98766e+07,-59.6511
6.992e+07,-58.7026
6.99633e+07,-58.5002
7.00067e+07,-57.1401
7.005e+07,-57.0034
7.00934e+07,-59.8852
7.01367e+07,-58.6737
7.01801e+07,-60.2171
7.02234e+07,-58.6227
7.02668e+07,-59.1481
7.03101e+07,-59.4247
7.03535e+07,-60.9436
7.03968e+07,-58.3368
7.04401e+07,-59.1897
7.04835e+07,-59.4646
7.05268e+07,-58.9084
7.05702e+07,-60.1085
7.06135e+07,-59.2527
7.06569e+07,-59.1113
7.07002e+07,-58.9781
7.07436e+07,-58.3852
7.07869e+07,-58.0253
7.08303e+07,-59.1978
7.08736e+07,-59.2733
7.0917e+07,-59.69
7.09603e+07,-59.6612
7.10037e+07,-58.1333
7.1047e+07,-58.8404
7.10904e+07,-59.0598
7.11337e+07,-59.161
7.11771e+07,-59.0833
7.12204e+07,-59.0981
7.12638e+07,-59.5501
7.13071e+07,-58.8253
7.13505e+07,-58.4636
7.13938e+07,-58.3727
7.14371e+07,-59.6696
7.14805e+07,-60.1836
7.15238e+07,-59.0617
7.15672e+07,-59.2413
7.16105e+07,-58.75
7.16539e+07,-58.0311
7.16972e+07,-58.8678
7.17406e+07,-59.6024
7.17839e+07,-57.8562
7.18273e+07,-58.2764
7.18706e+07,-60.1861
7.1914e+07,-58.7207
7.19573e+07,-59.9989
7.20007e+07,-59.4517
7.2044e+07,-57.9986
7.20874e+07,-58.6126
7.21307e+07,-60.349
7.21741e+07,-59.3465
7.22174e+07,-59.9129
7.22608e+07,-60.128
7.23041e+07,-60.0312
7.23474e+07,-58.6543
7.23908e+07,-60.4765
7.24341e+07,-59.3765
7.24775e+07,-59.4072
7.25208e+07,-59.4566
7.25642e+07,-60.0538
7.26075e+07,-58.3452
7.26509e+07,-60.5601
7.26942e+07,-58.7245
7.27376e+07,-58.5886
7.27809e+07,-59.1751
7.28243e+07,-59.0735
7.28676e+07,-59.7815
7.2911e+07,-58.4516
7.29543e+07,-60.6017
7.29977e+07,-59.4462
7.3041e+07,-60.106
7.30844e+07,-59.653
7.31277e+07,-59.6434
7.31711e+07,-59.0667
7.32144e+07,-60.2167
7.32578e+07,-59.7196
7.33011e+07,-60.1155
7.33444e+07,-59.6906
7.33878e+07,-59.5482
7.34311e+07,-59.7801
7.34745e+07,-60.2841
7.35178e+07,-59.328
7.35612e+07,-58.1807
7.36045e+07,-60.4597
7.36479e+07,-60.6855
7.36912e+07,-60.5014
7.37346e+07,-58.8254
7.37779e+07,-60.5715
7.38213e+07,-60.6851
7.38646e+07,-60.2525
7.3908e+07,-58.2796
7.39513e+07,-59.9382
7.39947e+07,-60.3171
7.4038e+07,-60.706
7.40814e+07,-59.6793
7.41247e+07,-59.4312
7.41681e+07,-59.4994
7.42114e+07,-60.7921
7.42548e+07,-60.0001
7.42981e+07,-60.5879
7.43414e+07,-60.3403
7.43848e+07,-59.0549
7.44281e+07,-60.2376
7.44715e+07,-59.2344
7.45148e+07,-60.3124
7.45582e+07,-60.1629
7.46015e+07,-60.1729
7.46449e+07,-59.2099
7.46882e+07,-59.7354
7.47316e+07,-59.6841
7.47749e+07,-59.3403
7.48183e+07,-60.5938
7.48616e+07,-59.7961
7.4905e+07,-60.0649
7.49483e+07,-58.7621
7.49917e+07,-59.6168
7.5035e+07,-57.7868
7.50784e+07,-58.8338
7.51217e+07,-60.0544
7.51651e+07,-59.8993
7.52084e+07,-58.8017
7.52518e+07,-59.9911
7.52951e+07,-60.8367
7.53384e+07,-61.0094
7.53818e+07,-60.8183
7.54251e+07,-59.2231
7.54685e+07,-60.037
7.55118e+07,-59.1927
7.55552e+07,-59.2652
7.55985e+07,-59.4339
7.56419e+07,-59.0846
7.56852e+07,-59.3842
7.57286e+07,-59.5772
7.57719e+07,-61.3261
7.58153e+07,-60.7234
7.58586e+07,-60.9527
7.5902e+07,-60.9415
7.59453e+07,-59.4827
7.59887e+07,-60.3398
7.6032e+07,-59.5482
7.60754e+07,-60.7263
7.61187e+07,-60.4051
7.61621e+07,-59.9396
7.62054e+07,-60.2436
7.62487e+07,-60.2401
7.62921e+07,-60.4568
7.63354e+07,-60.7835
7.63788e+07,-60.2943
7.64221e+07,-60.2635
7.64655e+07,-61.2134
7.65088e+07,-61.0962
7.65522e+07,-60.6822
7.65955e+07,-60.8628
7.66389e+07,-60.7322
7.66822e+07,-60.3657
7.67256e+07,-59.8338
7.67689e+07,-61.2165
7.68123e+07,-60.6459
7.68556e+07,-59.5368
7.6899e+07,-61.8106
7.69423e+07,-61.3619
7.69857e+07,-60.5674
7.7029e+07,-60.4655
7.70724e+07,-59.9407
7.71157e+07,-60.434
7.71591e+07,-60.5494
7.72024e+07,-61.2613
7.72457e+07,-60.6591
7.72891e+07,-60.354
7.73324e+07,-60.6839
7.73758e+07,-60.9417
7.74191e+07,-61.0903
7.74625e+07,-60.8717
7.75058e+07,-61.2874
7.75492e+07,-60.7157
7.75925e+07,-60.9338
7.76359e+07,-60.23
7.76792e+07,-60.2537
7.77226e+07,-61.2143
7.77659e+07,-61.5043
7.78093e+07,-60.339
7.78526e+07,-61.3134
7.7896e+07,-60.59
7.79393e+07,-60.165
7.79827e+07,-61.4763
7.8026e+07,-60.1816
7.80694e+07,-60.6607
7.81127e+07,-61.183
7.81561e+07,-61.2935
7.81994e+07,-60.2355
7.82427e+07,-60.6425
7.82861e+07,-59.5022
7.83294e+07,-60.4659
7.83728e+07,-61.448
7.84161e+07,-59.9638
7.84595e+07,-60.873
7.85028e+07,-59.6657
7.85462e+07,-58.5945
7.85895e+07,-60.6417
7.86329e+07,-60.553
7.86762e+07,-59.2427
7.87196e+07,-61.231
7.87629e+07,-60.5562
7.88063e+07,-60.7704
7.88496e+07,-60.763
7.8893e+07,-61.0122
7.89363e+07,-60.7052
7.89797e+07,-60.9786
7.9023e+07,-60.7518
7.90664e+07,-59.9065
7.91097e+07,-57.698
7.91531e+07,-60.478
7.91964e+07,-60.8275
7.92397e+07,-59.8214
7.92831e+07,-59.5154
7.93264e+07,-59.9848
7.93698e+07,-59.8178
7.94131e+07,-60.4774
7.94565e+07,-59.4216
7.94998e+07,-59.6824
7.95432e+07,-59.7689
7.95865e+07,-59.6886
7.96299e+07,-60.0971
7.96732e+07,-59.9083
7.97166e+07,-58.544
7.97599e+07,-60.3
7.98033e+07,-59.5676
7.98466e+07,-59.7908
7.989e+07,-59.2156
7.99333e+07,-60.1165
7.99767e+07,-58.7273
8.002e+07,-58.9561
8.00634e+07,-59.5261
8.01067e+07,-59.9533
8.01501e+07,-60.1261
8.01934e+07,-60.5035
8.02367e+07,-59.9201
8.02801e+07,-59.9101
8.03234e+07,-59.9166
8.03668e+07,-60.5948
8.04101e+07,-59.4909
8.04535e+07,-58.8008
8.04968e+07,-59.6737
8.05402e+07,-60.4747
8.05835e+07,-59.4407
8.06269e+07,-60.0016
8.06702e+07,-59.531
8.07136e+07,-60.2397
8.07569e+07,-60.1752
8.08003e+07,-59.1863
8.08436e+07,-59.8859
8.0887e+07,-58.5161
8.09303e+07,-59.3595
8.09737e+07,-60.7436
8.1017e+07,-59.477
8.10604e+07,-59.0599
8.11037e+07,-59.1705
8.1147e+07,-60.3379
8.11904e+07,-59.5235
8.12337e+07,-60.393
8.12771e+07,-59.7455
8.13204e+07,-59.4296
8.13638e+07,-60.3168
8.14071e+07,-61.1638
8.14505e+07,-59.9798
8.14938e+07,-60.455
8.15372e+07,-60.4758
8.15805e+07,-60.7747
8.16239e+07,-60.1562
8.16672e+07,-61.7182
8.17106e+07,-60.2612
8.17539e+07,-60.3918
8.17973e+07,-60.0253
8.18406e+07,-61.0874
8.1884e+07,-60.5417
8.19273e+07,-59.1145
8.19707e+07,-61.7296
8.2014e+07,-60.68
8.20574e+07,-60.3807
8.21007e+07,-60.8901
8.2144e+07,-60.912
8.21874e+07,-59.6347
8.22307e+07,-60.7118
8.22741e+07,-61.0601
8.23174e+07,-61.1088
8.23608e+07,-61.1767
8.24041e+07,-60.6398
8.24475e+07,-60.6361
8.24908e+07,-61.314
8.25342e+07,-61.875
8.25775e+07,-60.5613
8.26209e+07,-59.4919
8.26642e+07,-60.6641
8.27076e+07,-61.5796
8.27509e+07,-61.7886
8.27943e+07,-61.6272
8.28376e+07,-59.9369
8.2881e+07,-60.6208
8.29243e+07,-61.6109
8.29677e+07,-60.3509
8.3011e+07,-61.6627
8.30544e+07,-61.3746
8.30977e+07,-61.2168
8.3141e+07,-61.3627
8.31844e+07,-61.2778
8.32277e+07,-61.6102
8.32711e+07,-60.9278
8.33144e+07,-61.3044
8.33578e+07,-61.3506
8.34011e+07,-61.2046
8.34445e+07,-61.6858
8.34878e+07,-60.9531
8.35312e+07,-61.5936
8.35745e+07,-61.3424
8.36179e+07,-62.0008
8.36612e+07,-60.4011
8.37046e+07,-61.7945
8.37479e+07,-60.9488
8.37913e+07,-61.9796
8.38346e+07,-61.8228
8.3878e+07,-61.0676
8.39213e+07,-61.6606
8.39647e+07,-61.2721
8.4008e+07,-61.6845
8.40514e+07,-61.7247
8.40947e+07,-60.9
8.4138e+07,-60.7037
8.41814e+07,-61.497
8.42247e+07,-61.9164
8.42681e+07,-60.3375
8.43114e+07,-61.0703
8.43548e+07,-60.7681
8.43981e+07,-61.5915
8.44415e+07,-61.7399
8.44848e+07,-61.8786
8.45282e+07,-60.0855
8.45715e+07,-60.4338
8.46149e+07,-61.7395
8.46582e+07,-61.2781
8.47016e+07,-61.9359
8.47449e+07,-61.5787
8.47883e+07,-60.9168
8.48316e+07,-61.0093
8.4875e+07,-61.919
8.49183e+07,-61.7105
8.49617e+07,-61.2315
8.5005e+07,-61.1667
8.50483e+07,-61.2695
8.50917e+07,-61.9102
8.5135e+07,-61.9183
8.51784e+07,-60.7625
8.52217e+07,-61.8277
8.52651e+07,-60.9415
8.53084e+07,-61.6935
8.53518e+07,-61.3343
8.53951e+07,-61.4157
8.54385e+07,-60.7728
8.54818e+07,-61.5136
8.55252e+07,-60.4454
8.55685e+07,-61.0974
8.56119e+07,-60.7941
8.56552e+07,-59.9797
8.56986e+07,-61.8716
8.57419e+07,-61.1498
8.57853e+07,-61.372
8.58286e+07,-61.1837
8.5872e+07,-61.5562
8.59153e+07,-61.8547
8.59587e+07,-60.6994
8.6002e+07,-62.275
8.60453e+07,-60.8478
8.60887e+07,-61.2441
8.6132e+07,-61.5003
8.61754e+07,-60.8584
8.62187e+07,-61.179
8.62621e+07,-62.1673
8.63054e+07,-61.5078
8.63488e+07,-61.695
8.63921e+07,-61.0354
8.64355e+07,-62.2139
8.64788e+07,-61.3548
8.65222e+07,-61.0876
8.65655e+07,-60.7195
8.66089e+07,-59.8072
8.66522e+07,-61.6541
8.66956e+07,-61.8037
8.67389e+07,-61.82
8.67823e+07,-61.4673
8.68256e+07,-60.8936
8.6869e+07,-61.1812
8.69123e+07,-61.7341
8.69557e+07,-62.1657
8.6999e+07,-61.7949
8.70423e+07,-61.5218
8.70857e+07,-62.5127
8.7129e+07,-60.8599
8.71724e+07,-61.5929
8.72157e+07,-60.9702
8.72591e+07,-62.165
8.73024e+07,-61.835
8.73458e+07,-60.9366
8.73891e+07,-62.1434
8.74325e+07,-62.3191
8.74758e+07,-61.851
8.75192e+07,-60.5708
8.75625e+07,-62.659
8.76059e+07,-61.6078
8.76492e+07,-61.4927
8.76926e+07,-62.7129
8.77359e+07,-60.5068
8.77793e+07,-62.0412
8.78226e+07,-60.1147
8.7866e+07,-61.9866
8.79093e+07,-61.5594
8.79527e+07,-61.0467
8.7996e+07,-62.0743
8.80393e+07,-62.0574
8.80827e+07,-60.8211
8.8126e+07,-62.1289
8.81694e+07,-62.4836
8.82127e+07,-61.7594
8.82561e+07,-61.5665
8.82994e+07,-60.3694
8.83428e+07,-62.0567
8.83861e+07,-62.514
8.84295e+07,-62.5986
8.84728e+07,-61.4163
8.85162e+07,-61.3772
8.85595e+07,-61.7181
8.86029e+07,-61.5141
8.86462e+07,-62.5668
8.86896e+07,-60.7651
8.87329e+07,-62.5044
8.87763e+07,-62.1105
8.88196e+07,-62.7831
8.8863e+07,-62.1612
8.89063e+07,-61.4074
8.89496e+07,-61.3335
8.8993e+07,-60.0917
8.90363e+07,-61.376
8.90797e+07,-61.8022
8.9123e+07,-61.1569
8.91664e+07,-61.7897
8.92097e+07,-61.996
8.92531e+07,-61.7084
8.92964e+07,-61.1983
8.93398e+07,-62.3973
8.93831e+07,-62.0752
8.94265e+07,-61.1335
8.94698e+07,-61.9288
8.95132e+07,-62.7952
8.95565e+07,-62.5024
8.95999e+07,-61.7887
8.96432e+07,-61.2433
8.96866e+07,-61.2547
8.97299e+07,-61.9822
8.97733e+07,-62.4314
8.98166e+07,-61.2621
8.986e+07,-62.0363
8.99033e+07,-62.6941
8.99466e+07,-63.0922
8.999e+07,-62.3478
9.00333e+07,-62.4132
9.00767e+07,-61.2423
9.012e+07,-61.8242
9.01634e+07,-61.8611
9.02067e+07,-61.771
9.02501e+07,-61.6216
9.02934e+07,-62.2304
9.03368e+07,-61.6534
9.03801e+07,-62.6163
9.04235e+07,-62.1235
9.04668e+07,-61.7338
9.05102e+07,-61.5096
9.05535e+07,-62.5356
9.05969e+07,-62.0471
9.06402e+07,-61.6487
9.06836e+07,-62.7149
9.07269e+07,-62.2897
9.07703e+07,-61.7737
9.08136e+07,-62.6019
9.0857e+07,-62.5973
9.09003e+07,-61.9836
9.09436e+07,-62.5391
9.0987e+07,-62.6419
9.10303e+07,-62.3323
9.10737e+07,-62.0292
9.1117e+07,-61.3555
9.11604e+07,-60.2628
9.12037e+07,-61.367
9.12471e+07,-61.9995
9.12904e+07,-62.4895
9.13338e+07,-62.556
9.13771e+07,-62.623
9.14205e+07,-62.6634
9.14638e+07,-62.3183
9.15072e+07,-62.3052
9.15505e+07,-62.3965
9.15939e+07,-60.6538
9.16372e+07,-62.6855
9.16806e+07,-62.1929
9.17239e+07,-62.6807
9.17673e+07,-62.3349
9.18106e+07,-61.3811
9.1854e+07,-61.9605
9.18973e+07,-61.9355
9.19406e+07,-62.3128
9.1984e+07,-62.6756
9.20273e+07,-62.5945
9.20707e+07,-62.1877
9.2114e+07,-62.6437
9.21574e+07,-60.7641
9.22007e+07,-61.0254
9.22441e+07,-62.4475
9.22874e+07,-62.9737
9.23308e+07,-62.6657
9.23741e+07,-61.9427
9.24175e+07,-61.8763
9.24608e+07,-61.0623
9.25042e+07,-62.0132
9.25475e+07,-60.991
9.25909e+07,-63.067
9.26342e+07,-62.2035
9.26776e+07,-61.0617
9.27209e+07,-62.42
9.27643e+07,-61.1143
9.28076e+07,-62.0545
9.2851e+07,-61.2549
9.28943e+07,-61.8095
9.29376e+07,-62.3191
9.2981e+07,-62.1557
9.30243e+07,-61.8051
9.30677e+07,-62.5474
9.3111e+07,-62.6279
9.31544e+07,-61.3081
9.31977e+07,-61.9991
9.32411e+07,-61.5746
9.32844e+07,-63.194
9.33278e+07,-61.723
9.33711e+07,-61.6222
9.34145e+07,-60.8707
9.34578e+07,-61.8164
9.35012e+07,-62.3569
9.35445e+07,-60.6778
9.35879e+07,-62.1969
9.36312e+07,-61.7101
9.36746e+07,-61.2645
9.37179e+07,-62.3782
9.37613e+07,-62.2825
9.38046e+07,-61.6412
9.38479e+07,-61.1306
9.38913e+07,-62.3516
9.39346e+07,-62.4567
9.3978e+07,-61.5291
9.40213e+07,-62.3252
9.40647e+07,-61.149
9.4108e+07,-62.2043
9.41514e+07,-61.0583
9.41947e+07,-61.6765
9.42381e+07,-61.2095
9.42814e+07,-61.9091
9.43248e+07,-61.8307
9.43681e+07,-62.1439
9.44115e+07,-61.461
9.44548e+07,-60.012
9.44982e+07,-60.5225
9.45415e+07,-62.0378
9.45849e+07,-61.7403
9.46282e+07,-61.8629
9.46716e+07,-61.7849
9.47149e+07,-61.425
9.47583e+07,-61.8338
9.48016e+07,-61.9744
9.48449e+07,-60.4514
9.48883e+07,-61.4835
9.49316e+07,-61.5388
9.4975e+07,-62.3971
9.50183e+07,-61.9948
9.50617e+07,-61.09
9.5105e+07,-61.3772
9.51484e+07,-61.6702
9.51917e+07,-60.5668
9.52351e+07,-62.7087
9.52784e+07,-62.2401
9.53218e+07,-62.6813
9.53651e+07,-60.7312
9.54085e+07,-60.8696
9.54518e+07,-61.8857
9.54952e+07,-62.3174
9.55385e+07,-62.1966
9.55819e+07,-62.0648
9.56252e+07,-62.3737
9.56686e+07,-61.8111
9.57119e+07,-62.2005
9.57553e+07,-62.5902
9.57986e+07,-61.6485
9.58419e+07,-61.823
9.58853e+07,-60.1766
9.59286e+07,-62.1914
9.5972e+07,-61.8762
9.60153e+07,-62.3466
9.60587e+07,-61.4807
9.6102e+07,-61.8676
9.61454e+07,-62.1823
9.61887e+07,-62.0381
9.62321e+07,-62.8528
9.62754e+07,-61.8631
9.63188e+07,-62.1905
9.63621e+07,-62.1434
9.64055e+07,-62.5395
9.64488e+07,-62.0501
9.64922e+07,-61.8708
9.65355e+07,-62.2933
9.65789e+07,-63.0529
9.66222e+07,-62.3757
9.66656e+07,-62.1982
9.67089e+07,-63.3019
9.67523e+07,-62.6237
9.67956e+07,-62.5832
9.68389e+07,-61.4828
9.68823e+07,-62.2795
9.69256e+07,-62.7776
9.6969e+07,-62.0363
9.70123e+07,-61.99
9.70557e+07,-63.2236
9.7099e+07,-62.4228
9.71424e+07,-62.3614
9.71857e+07,-62.7862
9.72291e+07,-62.5957
9.72724e+07,-63.3836
9.73158e+07,-62.361
9.73591e+07,-63.4326
9.74025e+07,-62.4002
9.74458e+07,-62.0604
9.74892e+07,-61.4695
9.75325e+07,-62.488
9.75759e+07,-62.5056
9.76192e+07,-63.2415
9.76626e+07,-63.0267
9.77059e+07,-63.7179
9.77492e+07,-63.4862
9.77926e+07,-61.528
9.78359e+07,-63.4069
9.78793e+07,-62.7662
9.79226e+07,-63.299
9.7966e+07,-62.4296
9.80093e+07,-62.9415
9.80527e+07,-62.5803
9.8096e+07,-62.5266
9.81394e+07,-62.988
9.81827e+07,-62.6204
9.82261e+07,-62.955
9.82694e+07,-62.8758
9.83128e+07,-61.7844
9.83561e+07,-62.376
9.83995e+07,-62.3759
9.84428e+07,-61.723
9.84862e+07,-62.7192
9.85295e+07,-62.4107
9.85729e+07,-61.2953
9.86162e+07,-63.1097
9.86596e+07,-63.3362
9.87029e+07,-61.2834
9.87462e+07,-62.8561
9.87896e+07,-63.5036
9.88329e+07,-62.1845
9.88763e+07,-63.0901
9.89196e+07,-62.8511
9.8963e+07,-61.9105
9.90063e+07,-62.7453
9.90497e+07,-62.2398
9.9093e+07,-62.0861
9.91364e+07,-63.6687
9.91797e+07,-61.7579
9.92231e+07,-61.9556
9.92664e+07,-63.0654
9.93098e+07,-62.9244
9.93531e+07,-62.8732
9.93965e+07,-61.3088
9.94398e+07,-63.4129
9.94832e+07,-62.8498
9.95265e+07,-62.694
9.95699e+07,-62.6486
9.96132e+07,-63.622
9.96566e+07,-62.7164
9.96999e+07,-64.1367
9.97432e+07,-62.8307
9.97866e+07,-62.5627
9.98299e+07,-63.0405
9.98733e+07,-62.9651
9.99166e+07,-63.5409
9.996e+07,-62.6613
1.00003e+08,-62.4644
1.00047e+08,-62.4555
1.0009e+08,-63.1157
1.00133e+08,-63.3279
1.00177e+08,-62.8805
1.0022e+08,-61.1307
1.00263e+08,-62.3279
1.00307e+08,-62.4903
1.0035e+08,-63.0109
1.00393e+08,-63.2012
1.00437e+08,-62.1126
1.0048e+08,-62.6149
1.00524e+08,-62.6962
1.00567e+08,-61.8818
1.0061e+08,-62.7598
1.00654e+08,-62.2145
1.00697e+08,-63.3265
1.0074e+08,-63.3509
1.00784e+08,-63.2147
1.00827e+08,-62.8374
1.0087e+08,-62.623
1.00914e+08,-62.1882
1.00957e+08,-62.3961
1.01e+08,-63.3748
1.01044e+08,-61.8973
1.01087e+08,-61.568
1.0113e+08,-63.272
1.01174e+08,-62.9949
1.01217e+08,-62.0346
1.0126e+08,-62.6401
1.01304e+08,-62.622
1.01347e+08,-62.5904
1.0139e+08,-61.417
1.01434e+08,-63.0178
1.01477e+08,-62.9286
1.01521e+08,-62.1867
1.01564e+08,-62.785
1.01607e+08,-63.5871
1.01651e+08,-63.1407
1.01694e+08,-62.863
1.01737e+08,-62.8815
1.01781e+08,-63.3093
1.01824e+08,-62.5401
1.01867e+08,-63.6218
1.01911e+08,-62.1644
1.01954e+08,-61.4471
1.01997e+08,-63.521
1.02041e+08,-63.04
1.02084e+08,-62.2802
1.02127e+08,-62.8389
1.02171e+08,-61.8533
1.02214e+08,-62.241
1.02257e+08,-63.4507
1.02301e+08,-63.1344
1.02344e+08,-63.8303
1.02387e+08,-63.7375
1.02431e+08,-63.264
1.02474e+08,-63.0201
1.02518e+08,-63.3271
1.02561e+08,-63.1433
1.02604e+08,-60.7467
1.02648e+08,-62.9586
1.02691e+08,-62.7092
1.02734e+08,-61.2392
1.02778e+08,-61.7209
1.02821e+08,-62.569
1.02864e+08,-62.9113
1.02908e+08,-62.7087
1.02951e+08,-63.1952
1.02994e+08,-63.033
1.03038e+08,-62.2433
1.03081e+08,-62.7402
1.03124e+08,-62.4262
1.03168e+08,-61.7362
1.03211e+08,-62.7399
1.03254e+08,-62.8316
1.03298e+08,-62.8871
1.03341e+08,-62.6172
1.03384e+08,-62.4344
1.03428e+08,-62.7806
1.03471e+08,-62.7667
1.03515e+08,-62.465
1.03558e+08,-63.1889
1.03601e+08,-63.6379
1.03645e+08,-63.2225
1.03688e+08,-60.5787
1.03731e+08,-62.6117
1.03775e+08,-61.924
1.03818e+08,-62.7157
1.03861e+08,-62.473
1.03905e+08,-62.4596
1.03948e+08,-62.6428
1.03991e+08,-63.4565
1.04035e+08,-62.2626
1.04078e+08,-61.6209
1.04121e+08,-62.8019
1.04165e+08,-63.2212
1.04208e+08,-62.6331
1.04251e+08,-63.2889
1.04295e+08,-62.7191
1.04338e+08,-62.3838
1.04381e+08,-63.7997
1.04425e+08,-63.3962
1.04468e+08,-62.5204
1.04512e+08,-61.9389
1.04555e+08,-61.737
1.04598e+08,-62.9352
1.04642e+08,-62.0223
1.04685e+08,-61.1163
1.04728e+08,-62.2178
1.04772e+08,-63.425
1.04815e+08,-62.7498
1.04858e+08,-62.5642
1.04902e+08,-62.4264
1.04945e+08,-61.8056
1.04988e+08,-62.7448
1.05032e+08,-63.3456
1.05075e+08,-63.2481
1.05118e+08,-63.5687
1.05162e+08,-63.3209
1.05205e+08,-63.0419
1.05248e+08,-63.306
1.05292e+08,-63.9959
1.05335e+08,-63.132
1.05378e+08,-62.1648
1.05422e+08,-62.2679
1.05465e+08,-62.0879
1.05509e+08,-63.3494
1.05552e+08,-63.3151
1.05595e+08,-63.4527
1.05639e+08,-61.9948
1.05682e+08,-62.0662
1.05725e+08,-63.0454
1.05769e+08,-64.1224
1.05812e+08,-62.9745
1.05855e+08,-64.0848
1.05899e+08,-63.5318
1.05942e+08,-63.4173
1.05985e+08,-63.4667
1.06029e+08,-62.9085
1.06072e+08,-62.6876
1.06115e+08,-63.054
1.06159e+08,-63.397
1.06202e+08,-63.2843
1.06245e+08,-63.4711
1.06289e+08,-63.5861
1.06332e+08,-63.2645
1.06375e+08,-62.9967
1.06419e+08,-62.9216
1.06462e+08,-63.5004
1.06506e+08,-64.2339
1.06549e+08,-62.5781
1.06592e+08,-63.4802
1.06636e+08,-63.5
1.06679e+08,-64.0828
1.06722e+08,-62.9536
1.06766e+08,-63.6507
1.06809e+08,-62.2129
1.06852e+08,-63.2973
1.06896e+08,-62.6403
1.06939e+08,-63.3264
1.06982e+08,-63.2727
1.07026e+08,-64.098
1.07069e+08,-62.772
1.07112e+08,-63.871
1.07156e+08,-63.7983
1.07199e+08,-64.3691
1.07242e+08,-62.3027
1.07286e+08,-62.4782
1.07329e+08,-63.8341
1.07372e+08,-63.404
1.07416e+08,-62.8913
1.07459e+08,-63.199
1.07503e+08,-63.8961
1.07546e+08,-64.0594
1.07589e+08,-64.1127
1.07633e+08,-62.3061
1.07676e+08,-62.8027
1.07719e+08,-64.1339
1.07763e+08,-63.6433
1.07806e+08,-63.8174
1.07849e+08,-63.6481
1.07893e+08,-62.9274
1.07936e+08,-63.3928
1.07979e+08,-62.8343
1.08023e+08,-63.0022
1.08066e+08,-63.5517
1.08109e+08,-63.3432
1.08153e+08,-63.765
1.08196e+08,-63.3971
1.08239e+08,-63.0253
1.08283e+08,-63.7595
1.08326e+08,-62.4139
1.08369e+08,-62.889
1.08413e+08,-63.1199
1.08456e+08,-61.1835
1.08499e+08,-63.5607
1.08543e+08,-63.3324
1.08586e+08,-63.621
1.0863e+08,-62.4176
1.08673e+08,-63.7329
1.08716e+08,-63.4901
1.0876e+08,-63.4403
1.08803e+08,-62.7954
1.08846e+08,-63.366
1.0889e+08,-63.9295
1.08933e+08,-62.3597
1.08976e+08,-63.7015
1.0902e+08,-63.1568
1.09063e+08,-63.1136
1.09106e+08,-62.6125
1.0915e+08,-63.1709
1.09193e+08,-63.2723
1.09236e+08,-63.0324
1.0928e+08,-62.6437
1.09323e+08,-62.2674
1.09366e+08,-63.5687
1.0941e+08,-63.7981
1.09453e+08,-63.9649
1.09496e+08,-63.7207
1.0954e+08,-64.5474
1.09583e+08,-62.3626
1.09627e+08,-61.6038
1.0967e+08,-63.7923
1.09713e+08,-62.3404
1.09757e+08,-63.7509
1.098e+08,-64.4016
1.09843e+08,-63.8022
1.09887e+08,-64.2804
1.0993e+08,-63.0402
1.09973e+08,-63.5271
1.10017e+08,-62.8758
1.1006e+08,-63.3534
1.10103e+08,-63.457
1.10147e+08,-63.786
1.1019e+08,-63.9474
1.10233e+08,-63.049
1.10277e+08,-62.9969
1.1032e+08,-63.7753
1.10363e+08,-63.3821
1.10407e+08,-63.7854
1.1045e+08,-64.0686
1.10493e+08,-63.2498
1.10537e+08,-63.8161
1.1058e+08,-63.8523
1.10624e+08,-63.2108
1.10667e+08,-63.4855
1.1071e+08,-63.5454
1.10754e+08,-63.1575
1.10797e+08,-63.5152
1.1084e+08,-63.3368
1.10884e+08,-63.4452
1.10927e+08,-62.5633
1.1097e+08,-63.6002
1.11014e+08,-63.5548
1.11057e+08,-63.1232
1.111e+08,-63.346
1.11144e+08,-62.8546
1.11187e+08,-63.7475
1.1123e+08,-62.7989
1.11274e+08,-62.9992
1.11317e+08,-63.4591
1.1136e+08,-62.7343
1.11404e+08,-63.6702
1.11447e+08,-63.4637
1.1149e+08,-63.7007
1.11534e+08,-62.7844
1.11577e+08,-62.8675
1.11621e+08,-63.7055
1.11664e+08,-63.4632
1.11707e+08,-63.1745
1.11751e+08,-64.1458
1.11794e+08,-64.0388
1.11837e+08,-63.5881
1.11881e+08,-64.7356
1.11924e+08,-62.4628
1.11967e+08,-62.7558
1.12011e+08,-63.1401
1.12054e+08,-63.3388
1.12097e+08,-62.1318
1.12141e+08,-63.4076
1.12184e+08,-64.188
1.12227e+08,-63.3975
1.12271e+08,-63.9477
1.12314e+08,-63.4567
1.12357e+08,-63.3185
1.12401e+08,-62.6047
1.12444e+08,-63.1199
1.12487e+08,-63.6983
1.12531e+08,-63.3475
1.12574e+08,-63.4462
1.12618e+08,-62.7956
1.12661e+08,-63.0813
1.12704e+08,-63.5659
1.12748e+08,-63.5005
1.12791e+08,-62.7998
1.12834e+08,-63.2881
1.12878e+08,-63.2539
1.12921e+08,-62.869
1.12964e+08,-64.0947
1.13008e+08,-63.3857
1.13051e+08,-63.4054
1.13094e+08,-63.1616
1.13138e+08,-62.8824
1.13181e+08,-63.5799
1.13224e+08,-63.7119
1.13268e+08,-63.5746
1.13311e+08,-64.3436
1.13354e+08,-63.7991
1.13398e+08,-64.2394
1.13441e+08,-63.6654
1.13484e+08,-64.3708
1.13528e+08,-62.8119
1.13571e+08,-63.8297
1.13615e+08,-63.7212
1.13658e+08,-64.3317
1.13701e+08,-62.9888
1.13745e+08,-63.4832
1.13788e+08,-62.2698
1.13831e+08,-63.0595
1.13875e+08,-62.6193
1.13918e+08,-63.5731
1.13961e+08,-63.4578
1.14005e+08,-63.4031
1.14048e+08,-64.2651
1.14091e+08,-63.5174
1.14135e+08,-63.4127
1.14178e+08,-63.383
1.14221e+08,-64.2157
1.14265e+08,-64.0702
1.14308e+08,-64.4688
1.14351e+08,-62.9262
1.14395e+08,-63.5117
1.14438e+08,-63.2745
1.14481e+08,-63.7449
1.14525e+08,-63.3772
1.14568e+08,-63.8221
1.14612e+08,-64.7753
1.14655e+08,-63.796
1.14698e+08,-64.3128
1.14742e+08,-62.1598
1.14785e+08,-64.677
1.14828e+08,-63.8163
1.14872e+08,-64.0955
1.14915e+08,-64.1761
1.14958e+08,-63.1909
1.15002e+08,-64.1435
1.15045e+08,-63.9728
1.15088e+08,-63.7126
1.15132e+08,-63.5199
1.15175e+08,-63.5198
1.15218e+08,-64.6531
1.15262e+08,-64.4331
1.15305e+08,-63.4945
1.15348e+08,-64.1266
1.15392e+08,-63.9825
1.15435e+08,-63.0272
1.15478e+08,-64.4104
1.15522e+08,-64.1262
1.15565e+08,-64.1962
1.15609e+08,-62.6017
1.15652e+08,-64.4044
1.15695e+08,-64.2885
1.15739e+08,-63.6041
1.15782e+08,-63.8818
1.15825e+08,-63.9499
1.15869e+08,-64.6345
1.15912e+08,-64.5211
1.15955e+08,-62.1698
1.15999e+08,-63.9231
1.16042e+08,-63.2854
1.16085e+08,-60.7731
1.16129e+08,-63.3488
1.16172e+08,-63.746
1.16215e+08,-64.1031
1.16259e+08,-64.0655
1.16302e+08,-64.0069
1.16345e+08,-62.2942
1.16389e+08,-63.633
1.16432e+08,-62.8699
1.16475e+08,-64.3361
1.16519e+08,-64.097
1.16562e+08,-64.2264
1.16606e+08,-64.542
1.16649e+08,-63.9743
1.16692e+08,-63.9005
1.16736e+08,-63.9424
1.16779e+08,-63.5966
1.16822e+08,-64.4573
1.16866e+08,-64.2967
1.16909e+08,-63.1959
1.16952e+08,-63.8947
1.16996e+08,-63.9629
1.17039e+08,-64.5919
1.17082e+08,-63.0423
1.17126e+08,-64.2578
1.17169e+08,-63.8004
1.17212e+08,-63.9518
1.17256e+08,-63.7692
1.17299e+08,-63.9727
1.17342e+08,-64.7169
1.17386e+08,-63.5498
1.17429e+08,-63.5497
1.17472e+08,-63.7429
1.17516e+08,-64.5794
1.17559e+08,-62.3656
1.17603e+08,-61.3865
1.17646e+08,-64.6303
1.17689e+08,-64.1804
1.17733e+08,-63.2327
1.17776e+08,-63.5438
1.17819e+08,-63.7421
1.17863e+08,-63.6754
1.17906e+08,-62.3254
1.17949e+08,-63.6344
1.17993e+08,-63.614
1.18036e+08,-64.0028
1.18079e+08,-62.6003
1.18123e+08,-62.5507
1.18166e+08,-64.0184
1.18209e+08,-63.418
1.18253e+08,-62.718
1.18296e+08,-63.6183
1.18339e+08,-64.3593
1.18383e+08,-63.8339
1.18426e+08,-63.7201
1.18469e+08,-63.8597
1.18513e+08,-63.4321
1.18556e+08,-63.4718
1.186e+08,-63.3774
1.18643e+08,-63.2646
1.18686e+08,-63.9378
1.1873e+08,-63.9799
1.18773e+08,-63.206
1.18816e+08,-62.3714
1.1886e+08,-64.2646
1.18903e+08,-63.496
1.18946e+08,-63.167
1.1899e+08,-64.1341
1.19033e+08,-64.0483
1.19076e+08,-64.0802
1.1912e+08,-63.6622
1.19163e+08,-64.0107
1.19206e+08,-64.6723
1.1925e+08,-62.7477
1.19293e+08,-63.361
1.19336e+08,-63.842
1.1938e+08,-64.1009
1.19423e+08,-62.9847
1.19466e+08,-63.3803
1.1951e+08,-64.7175
1.19553e+08,-63.8155
1.19597e+08,-63.743
1.1964e+08,-63.4195
1.19683e+08,-64.1486
1.19727e+08,-63.7944
1.1977e+08,-64.1376
1.19813e+08,-63.6198
1.19857e+08,-62.6914
1.199e+08,-64.1751
1.19943e+08,-63.7939
1.19987e+08,-63.1693
1.2003e+08,-64.2455
1.20073e+08,-62.8706
1.20117e+08,-64.3
1.2016e+08,-64.67
1.20203e+08,-63.4381
1.20247e+08,-64.0081
1.2029e+08,-63.5934
1.20333e+08,-63.3094
1.20377e+08,-63.0678
1.2042e+08,-63.4525
1.20463e+08,-64.6464
1.20507e+08,-63.6691
1.2055e+08,-63.5171
1.20594e+08,-63.2795
1.20637e+08,-63.5421
1.2068e+08,-64.3096
1.20724e+08,-63.1004
1.20767e+08,-64.3646
1.2081e+08,-62.2359
1.20854e+08,-63.382
1.20897e+08,-64.0013
1.2094e+08,-63.6732
1.20984e+08,-63.6476
1.21027e+08,-64.7486
1.2107e+08,-63.2881
1.21114e+08,-63.5661
1.21157e+08,-63.4857
1.212e+08,-63.9161
1.21244e+08,-63.3465
1.21287e+08,-63.657
1.2133e+08,-64.3026
1.21374e+08,-64.33
1.21417e+08,-63.5604
1.2146e+08,-65.2781
1.21504e+08,-64.2584
1.21547e+08,-64.7358
1.21591e+08,-62.7376
1.21634e+08,-63.8627
1.21677e+08,-62.2816
1.21721e+08,-63.8729
1.21764e+08,-64.741
1.21807e+08,-64.5353
1.21851e+08,-63.499
1.21894e+08,-61.9689
1.21937e+08,-64.7464
1.21981e+08,-64.6772
1.22024e+08,-63.7838
1.22067e+08,-64.0304
1.22111e+08,-64.3283
1.22154e+08,-64.6998
1.22197e+08,-64.5063
1.22241e+08,-64.1264
1.22284e+08,-64.0994
1.22327e+08,-64.6192
1.22371e+08,-64.705
1.22414e+08,-63.887
1.22457e+08,-63.5126
1.22501e+08,-64.7973
1.22544e+08,-64.745
1.22588e+08,-64.8379
1.22631e+08,-62.7306
1.22674e+08,-65.1048
1.22718e+08,-64.2993
1.22761e+08,-64.0394
1.22804e+08,-64.2662
1.22848e+08,-64.7269
1.22891e+08,-64.1572
1.22934e+08,-63.4018
1.22978e+08,-63.4116
1.23021e+08,-64.2931
1.23064e+08,-65.0678
1.23108e+08,-63.4064
1.23151e+08,-64.1296
1.23194e+08,-62.4672
1.23238e+08,-64.9245
1.23281e+08,-62.0798
1.23324e+08,-64.3144
1.23368e+08,-63.7961
1.23411e+08,-63.5104
1.23454e+08,-64.3306
1.23498e+08,-64.172
1.23541e+08,-62.8858
1.23585e+08,-64.2863
1.23628e+08,-64.7714
1.23671e+08,-65.2729
1.23715e+08,-63.3752
1.23758e+08,-65.1385
1.23801e+08,-63.7228
1.23845e+08,-64.1011
1.23888e+08,-64.9822
1.23931e+08,-64.6439
1.23975e+08,-63.7947
1.24018e+08,-64.16
1.24061e+08,-64.0204
1.24105e+08,-63.078
1.24148e+08,-63.2516
1.24191e+08,-63.727
1.24235e+08,-64.3398
1.24278e+08,-64.0732
1.24321e+08,-63.0775
1.24365e+08,-64.009
1.24408e+08,-64.2296
1.24451e+08,-63.9876
1.24495e+08,-64.1751
1.24538e+08,-64.4558
1.24582e+08,-63.5984
1.24625e+08,-64.3444
1.24668e+08,-64.2018
1.24712e+08,-64.1313
1.24755e+08,-64.1691
1.24798e+08,-62.6934
1.24842e+08,-64.3716
1.24885e+08,-64.4662
1.24928e+08,-64.9976
1.24972e+08,-64.0289
1.25015e+08,-64.6357
1.25058e+08,-63.9122
1.25102e+08,-64.1682
1.25145e+08,-64.1736
1.25188e+08,-64.6352
1.25232e+08,-63.991
1.25275e+08,-64.8961
1.25318e+08,-62.9096
1.25362e+08,-63.2975
1.25405e+08,-64.4594
1.25448e+08,-64.4313
1.25492e+08,-63.4305
1.25535e+08,-64.2161
1.25579e+08,-64.4031
1.25622e+08,-64.8307
1.25665e+08,-63.5604
1.25709e+08,-63.0456
1.25752e+08,-64.2647
1.25795e+08,-64.2537
1.25839e+08,-64.2481
1.25882e+08,-63.4695
1.25925e+08,-64.1771
1.25969e+08,-63.8629
1.26012e+08,-64.2532
1.26055e+08,-64.1931
1.26099e+08,-64.0369
1.26142e+08,-62.9924
1.26185e+08,-64.8352
1.26229e+08,-61.629
1.26272e+08,-63.7737
1.26315e+08,-63.6197
1.26359e+08,-63.9355
1.26402e+08,-62.1967
1.26445e+08,-64.4569
1.26489e+08,-63.2704
1.26532e+08,-62.7812
1.26576e+08,-63.8667
1.26619e+08,-62.9771
1.26662e+08,-64.4117
1.26706e+08,-62.9298
1.26749e+08,-63.9451
1.26792e+08,-64.1049
1.26836e+08,-63.7362
1.26879e+08,-62.7205
1.26922e+08,-62.9199
1.26966e+08,-64.24
1.27009e+08,-63.9975
1.27052e+08,-63.547
1.27096e+08,-63.9443
1.27139e+08,-63.6483
1.27182e+08,-63.8496
1.27226e+08,-61.9563
1.27269e+08,-64.0448
1.27312e+08,-62.6875
1.27356e+08,-62.6645
1.27399e+08,-63.5867
1.27442e+08,-62.4616
1.27486e+08,-63.828
1.27529e+08,-63.0556
1.27573e+08,-64.244
1.27616e+08,-63.6932
1.27659e+08,-64.5215
1.27703e+08,-63.7342
1.27746e+08,-64.4091
1.27789e+08,-63.7237
1.27833e+08,-63.4549
1.27876e+08,-64.5436
1.27919e+08,-64.4815
1.27963e+08,-64.1075
1.28006e+08,-64.4588
1.28049e+08,-63.5801
1.28093e+08,-64.9604
1.28136e+08,-64.1448
1.28179e+08,-63.9259
1.28223e+08,-63.1114
1.28266e+08,-64.3857
1.28309e+08,-63.615
1.28353e+08,-64.5595
1.28396e+08,-63.5086
1.28439e+08,-63.2414
1.28483e+08,-64.6905
1.28526e+08,-63.584
1.2857e+08,-64.3683
1.28613e+08,-64.0898
1.28656e+08,-63.4679
1.287e+08,-64.4965
1.28743e+08,-62.7069
1.28786e+08,-63.7678
1.2883e+08,-63.8875
1.28873e+08,-63.2599
1.28916e+08,-64.1918
1.2896e+08,-64.0355
1.29003e+08,-64.2352
1.29046e+08,-60.1527
1.2909e+08,-61.3711
1.29133e+08,-64.7352
1.29176e+08,-64.603
1.2922e+08,-65.3029
1.29263e+08,-63.4965
1.29306e+08,-63.6892
1.2935e+08,-63.0133
1.29393e+08,-64.3166
1.29436e+08,-64.7751
1.2948e+08,-63.4111
1.29523e+08,-63.2437
1.29567e+08,-64.9926
1.2961e+08,-64.2119
1.29653e+08,-63.2045
1.29697e+08,-64.1303
1.2974e+08,-64.0496
1.29783e+08,-64.7394
1.29827e+08,-64.4433
1.2987e+08,-64.4209
1.29913e+08,-64.2933
1.29957e+08,-63.9746
1.3e+08,-64.7679
