FileType,0
Number of Points,3000
Sweep Time,3e+08
Start Frequency,0
Stop Frequency,1.3e+08
Average Count,1
Average Type,0
RBW,10000
RBW Filter,0
RBW Filter BW,0
VBW,10000
Sweep Type,0
X Axis Scale,1
PreAmp State,0
Trigger Source,0
Trigger Level,-25
Trigger Edge,0
Trigger Delay Switch,0
Trigger Delay,1
Attenuation,20
Ref Level Offset,0
External Gain,0
Trace Type,0
Detector,0
Trace Math,5
Trace Math Oper1,4
Trace Math Oper2,5
Trace Math Offset,0
Trace Name,0
Full Span,1.3e+08
Y Axis Unit,0
DATA,
0,-15.7032
43347.8,-62.8598
86695.6,-43.4658
130043,-43.995
173391,-49.6351
216739,-49.601
260087,-47.19
303434,-50.4229
346782,-52.0917
390130,-53.9278
433478,-56.3797
476826,-62.5432
520173,-57.0832
563521,-59.2549
606869,-65.6443
650217,-53.4849
693565,-55.4861
736912,-54.7344
780260,-54.2776
823608,-59.3773
866956,-60.7086
910303,-47.57
953651,-48.7463
996999,-56.4317
1.04035e+06,-57.9304
1.08369e+06,-59.6326
1.12704e+06,-62.7235
1.17039e+06,-56.8654
1.21374e+06,-62.7722
1.25709e+06,-60.9442
1.30043e+06,-60.7499
1.34378e+06,-62.0432
1.38713e+06,-58.114
1.43048e+06,-51.5219
1.47382e+06,-56.6117
1.51717e+06,-58.537
1.56052e+06,-54.5138
1.60387e+06,-55.3553
1.64722e+06,-57.0254
1.69056e+06,-56.1028
1.73391e+06,-57.3801
1.77726e+06,-58.5285
1.82061e+06,-58.5998
1.86395e+06,-60.217
1.9073e+06,-57.9142
1.95065e+06,-54.9043
1.994e+06,-56.1454
2.03735e+06,-56.103
2.08069e+06,-54.8168
2.12404e+06,-54.7237
2.16739e+06,-54.1639
2.21074e+06,-54.0195
2.25408e+06,-56.1688
2.29743e+06,-54.924
2.34078e+06,-53.385
2.38413e+06,-54.1327
2.42748e+06,-53.3087
2.47082e+06,-54.0864
2.51417e+06,-53.453
2.55752e+06,-51.7174
2.60087e+06,-54.8697
2.64421e+06,-54.5756
2.68756e+06,-51.6289
2.73091e+06,-51.7876
2.77426e+06,-52.9535
2.81761e+06,-49.8427
2.86095e+06,-50.7075
2.9043e+06,-51.0686
2.94765e+06,-52.4532
2.991e+06,-52.1065
3.03434e+06,-49.7973
3.07769e+06,-50.6326
3.12104e+06,-50.9498
3.16439e+06,-50.0849
3.20774e+06,-52.8885
3.25108e+06,-51.2968
3.29443e+06,-50.2214
3.33778e+06,-51.5635
3.38113e+06,-53.1407
3.42447e+06,-50.4687
3.46782e+06,-50.5971
3.51117e+06,-50.7861
3.55452e+06,-50.5581
3.59787e+06,-49.56
3.64121e+06,-51.3971
3.68456e+06,-48.7874
3.72791e+06,-40.8219
3.77126e+06,-40.5043
3.8146e+06,-41.3702
3.85795e+06,-43.7813
3.9013e+06,-49.3364
3.94465e+06,-50.0086
3.988e+06,-50.7186
4.03134e+06,-52.3506
4.07469e+06,-51.4258
4.11804e+06,-52.5181
4.16139e+06,-50.7079
4.20473e+06,-51.0626
4.24808e+06,-51.3603
4.29143e+06,-52.6029
4.33478e+06,-53.7734
4.37813e+06,-53.6702
4.42147e+06,-53.9257
4.46482e+06,-53.0625
4.50817e+06,-54.0531
4.55152e+06,-54.3108
4.59486e+06,-52.5483
4.63821e+06,-53.0323
4.68156e+06,-51.7804
4.72491e+06,-52.141
4.76826e+06,-53.2833
4.8116e+06,-53.6814
4.85495e+06,-54.3673
4.8983e+06,-50.1195
4.94165e+06,-53.4014
4.98499e+06,-52.7166
5.02834e+06,-52.9371
5.07169e+06,-53.3503
5.11504e+06,-52.072
5.15839e+06,-52.5398
5.20173e+06,-51.1026
5.24508e+06,-52.3264
5.28843e+06,-50.0011
5.33178e+06,-46.7008
5.37513e+06,-46.3914
5.41847e+06,-46.0852
5.46182e+06,-47.9582
5.50517e+06,-52.6924
5.54852e+06,-51.3519
5.59186e+06,-51.05
5.63521e+06,-51.6831
5.67856e+06,-52.0227
5.72191e+06,-50.7644
5.76526e+06,-50.2024
5.8086e+06,-50.6622
5.85195e+06,-51.7015
5.8953e+06,-49.7432
5.93865e+06,-51.7365
5.98199e+06,-48.9444
6.02534e+06,-50.3128
6.06869e+06,-47.344
6.11204e+06,-44.6692
6.15539e+06,-43.9258
6.19873e+06,-44.2721
6.24208e+06,-45.1716
6.28543e+06,-47.0874
6.32878e+06,-49.9825
6.37212e+06,-49.4729
6.41547e+06,-47.0435
6.45882e+06,-48.1626
6.50217e+06,-49.4457
6.54552e+06,-49.1989
6.58886e+06,-49.9344
6.63221e+06,-49.3738
6.67556e+06,-49.5233
6.71891e+06,-49.129
6.76225e+06,-47.899
6.8056e+06,-47.2628
6.84895e+06,-48.3267
6.8923e+06,-47.6332
6.93565e+06,-46.2374
6.97899e+06,-46.0515
7.02234e+06,-47.5256
7.06569e+06,-48.5916
7.10904e+06,-48.2664
7.15238e+06,-46.7802
7.19573e+06,-49.0592
7.23908e+06,-48.0015
7.28243e+06,-47.6357
7.32578e+06,-47.8547
7.36912e+06,-47.6385
7.41247e+06,-48.5635
7.45582e+06,-46.1316
7.49917e+06,-46.8143
7.54251e+06,-46.7137
7.58586e+06,-48.8527
7.62921e+06,-47.0528
7.67256e+06,-48.1781
7.71591e+06,-47.6103
7.75925e+06,-46.5507
7.8026e+06,-46.4365
7.84595e+06,-45.1091
7.8893e+06,-46.3238
7.93264e+06,-46.1507
7.97599e+06,-47.3288
8.01934e+06,-46.8456
8.06269e+06,-47.4266
8.10604e+06,-47.9441
8.14938e+06,-47.7909
8.19273e+06,-46.9003
8.23608e+06,-47.2862
8.27943e+06,-47.8086
8.32277e+06,-47.4277
8.36612e+06,-46.4141
8.40947e+06,-45.8903
8.45282e+06,-46.5317
8.49617e+06,-46.0922
8.53951e+06,-42.7032
8.58286e+06,-41.7052
8.62621e+06,-43.8599
8.66956e+06,-48.1194
8.7129e+06,-47.2226
8.75625e+06,-47.6895
8.7996e+06,-46.9954
8.84295e+06,-45.7497
8.8863e+06,-46.4109
8.92964e+06,-48.5697
8.97299e+06,-45.88
9.01634e+06,-47.8301
9.05969e+06,-45.8002
9.10303e+06,-48.2372
9.14638e+06,-47.9838
9.18973e+06,-48.4304
9.23308e+06,-48.6478
9.27643e+06,-49.2041
9.31977e+06,-45.966
9.36312e+06,-43.1076
9.40647e+06,-47.1219
9.44982e+06,-44.2471
9.49316e+06,-47.7313
9.53651e+06,-49.0717
9.57986e+06,-48.5233
9.62321e+06,-48.5688
9.66656e+06,-47.9406
9.7099e+06,-47.5917
9.75325e+06,-49.3395
9.7966e+06,-47.9647
9.83995e+06,-49.0816
9.88329e+06,-49.3233
9.92664e+06,-47.898
9.96999e+06,-48.2345
1.00133e+07,-47.5546
1.00567e+07,-49.4766
1.01e+07,-48.6359
1.01434e+07,-43.075
1.01867e+07,-42.5086
1.02301e+07,-48.5142
1.02734e+07,-49.6927
1.03168e+07,-49.4619
1.03601e+07,-49.4579
1.04035e+07,-50.5668
1.04468e+07,-49.5497
1.04902e+07,-48.7534
1.05335e+07,-48.8082
1.05769e+07,-47.5923
1.06202e+07,-47.1463
1.06636e+07,-49.4015
1.07069e+07,-49.5076
1.07503e+07,-48.7897
1.07936e+07,-49.3469
1.08369e+07,-49.0023
1.08803e+07,-49.3284
1.09236e+07,-48.7184
1.0967e+07,-48.2438
1.10103e+07,-47.7387
1.10537e+07,-48.5255
1.1097e+07,-50.0034
1.11404e+07,-48.4072
1.11837e+07,-48.9007
1.12271e+07,-48.8447
1.12704e+07,-47.144
1.13138e+07,-46.4856
1.13571e+07,-49.6066
1.14005e+07,-48.798
1.14438e+07,-50.0837
1.14872e+07,-46.6356
1.15305e+07,-49.2523
1.15739e+07,-48.598
1.16172e+07,-47.6527
1.16606e+07,-48.6006
1.17039e+07,-51.1373
1.17472e+07,-47.9899
1.17906e+07,-49.3105
1.18339e+07,-33.2028
1.18773e+07,-47.2407
1.19206e+07,-27.5169
1.1964e+07,-50.3701
1.20073e+07,-42.7255
1.20507e+07,-40.7553
1.2094e+07,-51.1657
1.21374e+07,-35.8467
1.21807e+07,-51.0069
1.22241e+07,-52.0169
1.22674e+07,-50.8455
1.23108e+07,-51.4749
1.23541e+07,-52.9972
1.23975e+07,-51.7186
1.24408e+07,-47.6617
1.24842e+07,-52.4146
1.25275e+07,-52.0341
1.25709e+07,-50.3615
1.26142e+07,-50.8348
1.26576e+07,-49.9621
1.27009e+07,-50.2867
1.27442e+07,-50.5963
1.27876e+07,-51.0819
1.28309e+07,-52.4521
1.28743e+07,-51.4625
1.29176e+07,-52.3835
1.2961e+07,-52.6846
1.30043e+07,-52.4788
1.30477e+07,-52.501
1.3091e+07,-52.1344
1.31344e+07,-52.7978
1.31777e+07,-52.4818
1.32211e+07,-52.1033
1.32644e+07,-52.8438
1.33078e+07,-52.1573
1.33511e+07,-51.609
1.33945e+07,-52.6795
1.34378e+07,-52.4712
1.34812e+07,-44.962
1.35245e+07,-25.8154
1.35679e+07,-27.3751
1.36112e+07,-29.0598
1.36546e+07,-49.291
1.36979e+07,-50.8684
1.37412e+07,-49.2241
1.37846e+07,-53.0315
1.38279e+07,-25.2241
1.38713e+07,-52.6084
1.39146e+07,-54.7964
1.3958e+07,-52.0414
1.40013e+07,-53.6905
1.40447e+07,-47.1606
1.4088e+07,-51.5254
1.41314e+07,-52.6701
1.41747e+07,-51.5605
1.42181e+07,-53.1496
1.42614e+07,-53.0247
1.43048e+07,-52.8052
1.43481e+07,-54.4147
1.43915e+07,-53.7891
1.44348e+07,-53.6518
1.44782e+07,-54.7486
1.45215e+07,-55.4127
1.45649e+07,-52.9615
1.46082e+07,-56.3103
1.46516e+07,-54.6183
1.46949e+07,-52.9664
1.47382e+07,-52.472
1.47816e+07,-54.4255
1.48249e+07,-55.022
1.48683e+07,-55.2658
1.49116e+07,-52.0099
1.4955e+07,-54.2561
1.49983e+07,-53.7613
1.50417e+07,-54.5021
1.5085e+07,-53.8439
1.51284e+07,-49.5749
1.51717e+07,-54.1646
1.52151e+07,-53.7678
1.52584e+07,-54.1914
1.53018e+07,-53.4013
1.53451e+07,-49.9023
1.53885e+07,-54.2878
1.54318e+07,-54.3283
1.54752e+07,-48.7355
1.55185e+07,-38.6356
1.55619e+07,-37.9517
1.56052e+07,-29.8099
1.56485e+07,-53.0708
1.56919e+07,-37.163
1.57352e+07,-35.5987
1.57786e+07,-43.6967
1.58219e+07,-36.6669
1.58653e+07,-53.1435
1.59086e+07,-51.982
1.5952e+07,-50.5091
1.59953e+07,-53.1785
1.60387e+07,-52.4769
1.6082e+07,-55.2175
1.61254e+07,-51.2971
1.61687e+07,-53.2207
1.62121e+07,-53.1075
1.62554e+07,-54.2021
1.62988e+07,-53.7329
1.63421e+07,-54.0499
1.63855e+07,-53.3793
1.64288e+07,-50.2553
1.64722e+07,-53.0015
1.65155e+07,-53.1414
1.65589e+07,-50.9988
1.66022e+07,-51.4001
1.66455e+07,-51.9035
1.66889e+07,-51.7791
1.67322e+07,-52.8802
1.67756e+07,-52.898
1.68189e+07,-52.0724
1.68623e+07,-50.4884
1.69056e+07,-53.016
1.6949e+07,-51.9514
1.69923e+07,-51.2223
1.70357e+07,-52.2613
1.7079e+07,-52.6367
1.71224e+07,-52.6337
1.71657e+07,-52.7815
1.72091e+07,-51.9962
1.72524e+07,-52.1806
1.72958e+07,-51.2047
1.73391e+07,-50.7766
1.73825e+07,-51.0424
1.74258e+07,-51.5559
1.74692e+07,-51.4446
1.75125e+07,-40.4383
1.75559e+07,-52.699
1.75992e+07,-52.1404
1.76425e+07,-51.2716
1.76859e+07,-51.5332
1.77292e+07,-51.3975
1.77726e+07,-49.971
1.78159e+07,-51.085
1.78593e+07,-51.0376
1.79026e+07,-50.078
1.7946e+07,-51.8274
1.79893e+07,-50.6126
1.80327e+07,-50.7338
1.8076e+07,-51.4802
1.81194e+07,-52.4974
1.81627e+07,-50.3945
1.82061e+07,-52.3601
1.82494e+07,-51.4474
1.82928e+07,-51.5882
1.83361e+07,-50.6235
1.83795e+07,-51.4491
1.84228e+07,-50.52
1.84662e+07,-53.1308
1.85095e+07,-51.5086
1.85529e+07,-51.4212
1.85962e+07,-53.6641
1.86395e+07,-51.2157
1.86829e+07,-51.4993
1.87262e+07,-52.8404
1.87696e+07,-53.2528
1.88129e+07,-52.8648
1.88563e+07,-49.2245
1.88996e+07,-52.1857
1.8943e+07,-51.1593
1.89863e+07,-49.074
1.90297e+07,-51.3882
1.9073e+07,-51.4937
1.91164e+07,-51.8162
1.91597e+07,-50.3943
1.92031e+07,-51.4729
1.92464e+07,-50.4408
1.92898e+07,-49.0474
1.93331e+07,-47.8686
1.93765e+07,-49.9753
1.94198e+07,-49.2744
1.94632e+07,-51.3357
1.95065e+07,-50.4133
1.95498e+07,-50.0521
1.95932e+07,-50.8222
1.96365e+07,-50.5696
1.96799e+07,-49.9905
1.97232e+07,-50.9739
1.97666e+07,-49.7217
1.98099e+07,-51.5836
1.98533e+07,-52.017
1.98966e+07,-51.855
1.994e+07,-49.5527
1.99833e+07,-50.1962
2.00267e+07,-50.6659
2.007e+07,-49.936
2.01134e+07,-46.6039
2.01567e+07,-48.5161
2.02001e+07,-49.7837
2.02434e+07,-49.6533
2.02868e+07,-50.1778
2.03301e+07,-49.8622
2.03735e+07,-50.2254
2.04168e+07,-49.9873
2.04602e+07,-49.4017
2.05035e+07,-49.9671
2.05468e+07,-49.8732
2.05902e+07,-49.1836
2.06335e+07,-47.2443
2.06769e+07,-49.9023
2.07202e+07,-49.175
2.07636e+07,-48.4737
2.08069e+07,-47.7261
2.08503e+07,-48.6345
2.08936e+07,-47.4429
2.0937e+07,-48.3166
2.09803e+07,-47.1522
2.10237e+07,-47.1212
2.1067e+07,-48.4359
2.11104e+07,-47.4489
2.11537e+07,-48.0125
2.11971e+07,-48.2722
2.12404e+07,-49.4726
2.12838e+07,-48.131
2.13271e+07,-48.8239
2.13705e+07,-49.4338
2.14138e+07,-46.8633
2.14572e+07,-47.293
2.15005e+07,-46.9973
2.15438e+07,-47.8432
2.15872e+07,-47.9849
2.16305e+07,-48.7215
2.16739e+07,-49.076
2.17172e+07,-47.0816
2.17606e+07,-47.6062
2.18039e+07,-47.1989
2.18473e+07,-48.8446
2.18906e+07,-48.6146
2.1934e+07,-47.0901
2.19773e+07,-48.9743
2.20207e+07,-47.1169
2.2064e+07,-49.6
2.21074e+07,-48.7207
2.21507e+07,-50.1023
2.21941e+07,-49.3315
2.22374e+07,-48.2652
2.22808e+07,-49.1179
2.23241e+07,-48.8116
2.23675e+07,-48.4796
2.24108e+07,-49.2636
2.24542e+07,-48.6117
2.24975e+07,-49.4353
2.25408e+07,-48.4306
2.25842e+07,-50.2801
2.26275e+07,-50.2727
2.26709e+07,-50.6189
2.27142e+07,-48.6091
2.27576e+07,-51.0251
2.28009e+07,-50.3372
2.28443e+07,-49.1321
2.28876e+07,-50.9877
2.2931e+07,-51.4287
2.29743e+07,-50.6877
2.30177e+07,-48.9697
2.3061e+07,-50.3632
2.31044e+07,-51.1618
2.31477e+07,-52.0844
2.31911e+07,-53.2159
2.32344e+07,-51.5281
2.32778e+07,-48.885
2.33211e+07,-49.7482
2.33645e+07,-48.9278
2.34078e+07,-48.9435
2.34512e+07,-48.6362
2.34945e+07,-49.1099
2.35378e+07,-50.7224
2.35812e+07,-50.5803
2.36245e+07,-49.9005
2.36679e+07,-50.3735
2.37112e+07,-49.8756
2.37546e+07,-50.0222
2.37979e+07,-50.0682
2.38413e+07,-51.0235
2.38846e+07,-50.2672
2.3928e+07,-50.2917
2.39713e+07,-51.3082
2.40147e+07,-51.5682
2.4058e+07,-50.714
2.41014e+07,-50.9755
2.41447e+07,-50.1792
2.41881e+07,-52.4167
2.42314e+07,-51.1521
2.42748e+07,-51.7045
2.43181e+07,-51.922
2.43615e+07,-51.4742
2.44048e+07,-50.8757
2.44481e+07,-49.7229
2.44915e+07,-51.8593
2.45348e+07,-52.1201
2.45782e+07,-51.7644
2.46215e+07,-50.7272
2.46649e+07,-51.6222
2.47082e+07,-46.2797
2.47516e+07,-52.1845
2.47949e+07,-52.8094
2.48383e+07,-52.2525
2.48816e+07,-52.5725
2.4925e+07,-52.1264
2.49683e+07,-52.33
2.50117e+07,-50.8912
2.5055e+07,-51.0619
2.50984e+07,-49.6273
2.51417e+07,-51.9028
2.51851e+07,-52.3436
2.52284e+07,-52.0189
2.52718e+07,-52.4141
2.53151e+07,-53.1665
2.53585e+07,-51.6221
2.54018e+07,-52.8557
2.54451e+07,-51.9729
2.54885e+07,-53.4671
2.55318e+07,-52.793
2.55752e+07,-53.6913
2.56185e+07,-55.2398
2.56619e+07,-54.6899
2.57052e+07,-52.6802
2.57486e+07,-54.2961
2.57919e+07,-53.4259
2.58353e+07,-53.7026
2.58786e+07,-55.2243
2.5922e+07,-54.5361
2.59653e+07,-51.8023
2.60087e+07,-55.1314
2.6052e+07,-54.6151
2.60954e+07,-56.7078
2.61387e+07,-57.466
2.61821e+07,-56.3498
2.62254e+07,-57.286
2.62688e+07,-55.9522
2.63121e+07,-57.4819
2.63555e+07,-57.6463
2.63988e+07,-55.3546
2.64421e+07,-57.1023
2.64855e+07,-54.4654
2.65288e+07,-55.2566
2.65722e+07,-53.1879
2.66155e+07,-54.5017
2.66589e+07,-55.2873
2.67022e+07,-55.4166
2.67456e+07,-56.3956
2.67889e+07,-55.0657
2.68323e+07,-53.8238
2.68756e+07,-57.606
2.6919e+07,-54.9798
2.69623e+07,-54.0416
2.70057e+07,-49.514
2.7049e+07,-54.445
2.70924e+07,-48.362
2.71357e+07,-54.3684
2.71791e+07,-55.2964
2.72224e+07,-31.2086
2.72658e+07,-29.8819
2.73091e+07,-53.1925
2.73525e+07,-55.3715
2.73958e+07,-55.5266
2.74391e+07,-53.1431
2.74825e+07,-53.228
2.75258e+07,-52.8981
2.75692e+07,-54.958
2.76125e+07,-53.0611
2.76559e+07,-54.9382
2.76992e+07,-54.2891
2.77426e+07,-56.6009
2.77859e+07,-55.5972
2.78293e+07,-55.1122
2.78726e+07,-54.9516
2.7916e+07,-56.0159
2.79593e+07,-52.8715
2.80027e+07,-53.7964
2.8046e+07,-54.2944
2.80894e+07,-54.7379
2.81327e+07,-54.1737
2.81761e+07,-52.1313
2.82194e+07,-51.5686
2.82628e+07,-51.8954
2.83061e+07,-55.8112
2.83494e+07,-55.8619
2.83928e+07,-52.7142
2.84361e+07,-52.7523
2.84795e+07,-52.6948
2.85228e+07,-52.3421
2.85662e+07,-52.3301
2.86095e+07,-53.4395
2.86529e+07,-51.1021
2.86962e+07,-51.621
2.87396e+07,-53.7259
2.87829e+07,-53.4955
2.88263e+07,-53.0581
2.88696e+07,-50.2441
2.8913e+07,-53.2417
2.89563e+07,-52.3523
2.89997e+07,-50.0284
2.9043e+07,-51.5561
2.90864e+07,-52.8078
2.91297e+07,-52.4412
2.91731e+07,-51.1332
2.92164e+07,-52.8447
2.92598e+07,-51.5243
2.93031e+07,-51.1043
2.93464e+07,-50.8304
2.93898e+07,-52.1218
2.94331e+07,-49.3573
2.94765e+07,-51.2019
2.95198e+07,-50.4636
2.95632e+07,-50.4613
2.96065e+07,-49.3828
2.96499e+07,-48.7419
2.96932e+07,-49.3871
2.97366e+07,-52.1795
2.97799e+07,-51.1527
2.98233e+07,-51.7529
2.98666e+07,-53.6014
2.991e+07,-50.8526
2.99533e+07,-52.1211
2.99967e+07,-52.363
3.004e+07,-52.7507
3.00834e+07,-52.0039
3.01267e+07,-53.8368
3.01701e+07,-52.3009
3.02134e+07,-52.8578
3.02568e+07,-54.377
3.03001e+07,-49.7047
3.03434e+07,-53.5409
3.03868e+07,-53.5543
3.04301e+07,-50.8496
3.04735e+07,-50.9215
3.05168e+07,-52.142
3.05602e+07,-53.069
3.06035e+07,-49.4916
3.06469e+07,-50.3266
3.06902e+07,-53.3067
3.07336e+07,-53.505
3.07769e+07,-52.274
3.08203e+07,-54.1818
3.08636e+07,-54.4363
3.0907e+07,-50.7068
3.09503e+07,-52.7846
3.09937e+07,-52.6097
3.1037e+07,-53.3436
3.10804e+07,-53.4262
3.11237e+07,-53.1184
3.11671e+07,-51.5976
3.12104e+07,-53.2903
3.12538e+07,-52.6657
3.12971e+07,-53.8342
3.13404e+07,-52.4931
3.13838e+07,-53.0575
3.14271e+07,-51.7032
3.14705e+07,-53.9085
3.15138e+07,-53.5337
3.15572e+07,-50.8544
3.16005e+07,-51.7489
3.16439e+07,-53.4599
3.16872e+07,-53.3325
3.17306e+07,-52.0169
3.17739e+07,-53.6767
3.18173e+07,-53.5026
3.18606e+07,-52.0532
3.1904e+07,-51.3111
3.19473e+07,-50.1675
3.19907e+07,-51.7158
3.2034e+07,-52.7134
3.20774e+07,-52.5051
3.21207e+07,-52.5653
3.21641e+07,-52.0902
3.22074e+07,-54.5541
3.22508e+07,-49.8962
3.22941e+07,-52.4577
3.23374e+07,-52.0236
3.23808e+07,-50.6194
3.24241e+07,-53.1137
3.24675e+07,-52.963
3.25108e+07,-55.1387
3.25542e+07,-54.3787
3.25975e+07,-52.2285
3.26409e+07,-55.2989
3.26842e+07,-52.9117
3.27276e+07,-53.5008
3.27709e+07,-53.0596
3.28143e+07,-52.8096
3.28576e+07,-55.0636
3.2901e+07,-53.9933
3.29443e+07,-52.8216
3.29877e+07,-53.9172
3.3031e+07,-53.2342
3.30744e+07,-53.3717
3.31177e+07,-54.2549
3.31611e+07,-53.0982
3.32044e+07,-55.332
3.32477e+07,-53.7051
3.32911e+07,-49.9321
3.33344e+07,-53.6315
3.33778e+07,-55.1718
3.34211e+07,-54.9813
3.34645e+07,-52.3518
3.35078e+07,-51.4343
3.35512e+07,-53.4964
3.35945e+07,-54.7147
3.36379e+07,-53.4826
3.36812e+07,-51.0659
3.37246e+07,-53.8208
3.37679e+07,-51.7363
3.38113e+07,-52.527
3.38546e+07,-53.1718
3.3898e+07,-54.2179
3.39413e+07,-54.9333
3.39847e+07,-54.4234
3.4028e+07,-54.3057
3.40714e+07,-50.6672
3.41147e+07,-55.2954
3.41581e+07,-55.3322
3.42014e+07,-53.9396
3.42447e+07,-55.0139
3.42881e+07,-54.987
3.43314e+07,-55.587
3.43748e+07,-55.7175
3.44181e+07,-53.2817
3.44615e+07,-55.2409
3.45048e+07,-54.6052
3.45482e+07,-55.3791
3.45915e+07,-54.0941
3.46349e+07,-55.1619
3.46782e+07,-53.8939
3.47216e+07,-56.2119
3.47649e+07,-54.346
3.48083e+07,-54.4505
3.48516e+07,-54.5074
3.4895e+07,-54.8805
3.49383e+07,-54.291
3.49817e+07,-53.5287
3.5025e+07,-57.4695
3.50684e+07,-56.3949
3.51117e+07,-56.008
3.51551e+07,-54.7384
3.51984e+07,-55.4346
3.52417e+07,-56.2614
3.52851e+07,-54.925
3.53284e+07,-55.8016
3.53718e+07,-56.6228
3.54151e+07,-56.2835
3.54585e+07,-56.1216
3.55018e+07,-56.5368
3.55452e+07,-55.7094
3.55885e+07,-56.0223
3.56319e+07,-55.3418
3.56752e+07,-54.9041
3.57186e+07,-54.6881
3.57619e+07,-56.1714
3.58053e+07,-56.6148
3.58486e+07,-56.367
3.5892e+07,-49.1786
3.59353e+07,-47.1647
3.59787e+07,-47.8498
3.6022e+07,-48.6845
3.60654e+07,-49.0927
3.61087e+07,-49.6232
3.61521e+07,-48.7715
3.61954e+07,-47.9871
3.62387e+07,-46.3436
3.62821e+07,-44.8058
3.63254e+07,-45.8857
3.63688e+07,-46.6711
3.64121e+07,-45.658
3.64555e+07,-44.2748
3.64988e+07,-45.2229
3.65422e+07,-45.806
3.65855e+07,-45.2284
3.66289e+07,-45.4048
3.66722e+07,-46.8999
3.67156e+07,-55.8929
3.67589e+07,-53.7186
3.68023e+07,-55.2932
3.68456e+07,-53.9191
3.6889e+07,-54.3416
3.69323e+07,-53.4812
3.69757e+07,-55.1935
3.7019e+07,-53.2855
3.70624e+07,-54.986
3.71057e+07,-53.1026
3.7149e+07,-54.8672
3.71924e+07,-52.9856
3.72357e+07,-57.0207
3.72791e+07,-52.4265
3.73224e+07,-56.0543
3.73658e+07,-51.3651
3.74091e+07,-56.3053
3.74525e+07,-51.8338
3.74958e+07,-55.9257
3.75392e+07,-52.4243
3.75825e+07,-55.8838
3.76259e+07,-52.3211
3.76692e+07,-55.0607
3.77126e+07,-51.9677
3.77559e+07,-56.2937
3.77993e+07,-51.9951
3.78426e+07,-57.6099
3.7886e+07,-50.5803
3.79293e+07,-57.1933
3.79727e+07,-50.6586
3.8016e+07,-56.2267
3.80594e+07,-50.3437
3.81027e+07,-56.8151
3.8146e+07,-50.061
3.81894e+07,-55.5961
3.82327e+07,-50.2476
3.82761e+07,-57.4012
3.83194e+07,-49.2469
3.83628e+07,-56.0345
3.84061e+07,-48.949
3.84495e+07,-55.8886
3.84928e+07,-49.685
3.85362e+07,-57.646
3.85795e+07,-49.7011
3.86229e+07,-56.1795
3.86662e+07,-49.3344
3.87096e+07,-56.0332
3.87529e+07,-48.3541
3.87963e+07,-56.1584
3.88396e+07,-49.1289
3.8883e+07,-56.2093
3.89263e+07,-48.4143
3.89697e+07,-55.6009
3.9013e+07,-48.8874
3.90564e+07,-54.9202
3.90997e+07,-49.1844
3.9143e+07,-54.9341
3.91864e+07,-49.0878
3.92297e+07,-55.5447
3.92731e+07,-49.5449
3.93164e+07,-55.663
3.93598e+07,-48.9821
3.94031e+07,-55.8241
3.94465e+07,-49.4157
3.94898e+07,-54.4404
3.95332e+07,-49.9555
3.95765e+07,-56.5948
3.96199e+07,-49.8224
3.96632e+07,-55.6157
3.97066e+07,-50.9295
3.97499e+07,-56.4664
3.97933e+07,-50.3166
3.98366e+07,-52.9154
3.988e+07,-50.1615
3.99233e+07,-51.2451
3.99667e+07,-48.4014
4.001e+07,-54.5277
4.00534e+07,-51.8443
4.00967e+07,-54.9094
4.014e+07,-49.4886
4.01834e+07,-51.5376
4.02267e+07,-52.4892
4.02701e+07,-52.7016
4.03134e+07,-52.8759
4.03568e+07,-54.2764
4.04001e+07,-50.9786
4.04435e+07,-52.141
4.04868e+07,-51.2849
4.05302e+07,-53.9738
4.05735e+07,-52.8484
4.06169e+07,-52.3498
4.06602e+07,-52.4836
4.07036e+07,-55.3143
4.07469e+07,-53.5261
4.07903e+07,-53.1614
4.08336e+07,-52.6082
4.0877e+07,-56.878
4.09203e+07,-53.8589
4.09637e+07,-53.5329
4.1007e+07,-42.0339
4.10504e+07,-52.7552
4.10937e+07,-52.6399
4.1137e+07,-55.2041
4.11804e+07,-55.1184
4.12237e+07,-52.2014
4.12671e+07,-51.3159
4.13104e+07,-54.9903
4.13538e+07,-54.4589
4.13971e+07,-57.2454
4.14405e+07,-55.049
4.14838e+07,-55.5347
4.15272e+07,-55.6589
4.15705e+07,-53.3471
4.16139e+07,-50.3101
4.16572e+07,-52.7351
4.17006e+07,-50.956
4.17439e+07,-52.9339
4.17873e+07,-53.1882
4.18306e+07,-52.7221
4.1874e+07,-53.0941
4.19173e+07,-50.1593
4.19607e+07,-53.9386
4.2004e+07,-51.8261
4.20473e+07,-52.839
4.20907e+07,-51.2223
4.2134e+07,-52.108
4.21774e+07,-52.3429
4.22207e+07,-51.4468
4.22641e+07,-50.8458
4.23074e+07,-50.9403
4.23508e+07,-52.0104
4.23941e+07,-50.9524
4.24375e+07,-50.4977
4.24808e+07,-50.5724
4.25242e+07,-49.6715
4.25675e+07,-50.3359
4.26109e+07,-49.9815
4.26542e+07,-49.6064
4.26976e+07,-50.6179
4.27409e+07,-49.4198
4.27843e+07,-51.0832
4.28276e+07,-49.6752
4.2871e+07,-49.8987
4.29143e+07,-50.9921
4.29577e+07,-48.5653
4.3001e+07,-51.0801
4.30443e+07,-49.1602
4.30877e+07,-48.5054
4.3131e+07,-48.2755
4.31744e+07,-50.8914
4.32177e+07,-49.5679
4.32611e+07,-49.6225
4.33044e+07,-50.373
4.33478e+07,-51.1475
4.33911e+07,-49.6761
4.34345e+07,-49.9156
4.34778e+07,-50.4812
4.35212e+07,-50.1853
4.35645e+07,-50.8356
4.36079e+07,-50.5619
4.36512e+07,-46.198
4.36946e+07,-50.1131
4.37379e+07,-50.8771
4.37813e+07,-49.5287
4.38246e+07,-50.1473
4.3868e+07,-50.0688
4.39113e+07,-50.5394
4.39547e+07,-48.8785
4.3998e+07,-49.2449
4.40413e+07,-50.2453
4.40847e+07,-49.8993
4.4128e+07,-49.6367
4.41714e+07,-48.7305
4.42147e+07,-48.1293
4.42581e+07,-49.3338
4.43014e+07,-49.9664
4.43448e+07,-48.2514
4.43881e+07,-50.0133
4.44315e+07,-49.0509
4.44748e+07,-48.4683
4.45182e+07,-48.5435
4.45615e+07,-47.8166
4.46049e+07,-49.2695
4.46482e+07,-48.7785
4.46916e+07,-48.4717
4.47349e+07,-49.2579
4.47783e+07,-48.6367
4.48216e+07,-48.3232
4.4865e+07,-46.3396
4.49083e+07,-47.89
4.49517e+07,-48.3551
4.4995e+07,-48.8872
4.50383e+07,-46.4902
4.50817e+07,-48.0014
4.5125e+07,-48.2125
4.51684e+07,-48.4212
4.52117e+07,-48.1144
4.52551e+07,-48.0827
4.52984e+07,-48.2356
4.53418e+07,-47.4973
4.53851e+07,-47.0487
4.54285e+07,-47.7987
4.54718e+07,-47.3398
4.55152e+07,-47.7672
4.55585e+07,-46.318
4.56019e+07,-47.9724
4.56452e+07,-47.9802
4.56886e+07,-49.1234
4.57319e+07,-45.9246
4.57753e+07,-47.4581
4.58186e+07,-46.0511
4.5862e+07,-47.247
4.59053e+07,-46.5973
4.59486e+07,-46.2575
4.5992e+07,-47.6988
4.60353e+07,-47.231
4.60787e+07,-47.3725
4.6122e+07,-47.1267
4.61654e+07,-47.6151
4.62087e+07,-47.8806
4.62521e+07,-49.2599
4.62954e+07,-48.0307
4.63388e+07,-49.6801
4.63821e+07,-49.8474
4.64255e+07,-49.0456
4.64688e+07,-50.0442
4.65122e+07,-49.2469
4.65555e+07,-49.4845
4.65989e+07,-49.8467
4.66422e+07,-50.7474
4.66856e+07,-50.8211
4.67289e+07,-51.2114
4.67723e+07,-50.6704
4.68156e+07,-50.9387
4.6859e+07,-50.9666
4.69023e+07,-50.6136
4.69456e+07,-50.1525
4.6989e+07,-51.512
4.70323e+07,-50.1348
4.70757e+07,-51.1066
4.7119e+07,-51.1466
4.71624e+07,-51.4743
4.72057e+07,-51.6258
4.72491e+07,-52.6546
4.72924e+07,-50.9809
4.73358e+07,-51.3705
4.73791e+07,-51.9494
4.74225e+07,-50.9759
4.74658e+07,-52.4886
4.75092e+07,-51.2783
4.75525e+07,-49.2941
4.75959e+07,-50.0382
4.76392e+07,-52.2603
4.76826e+07,-51.7292
4.77259e+07,-50.9849
4.77693e+07,-50.3444
4.78126e+07,-52.1946
4.7856e+07,-52.9998
4.78993e+07,-53.2215
4.79426e+07,-52.9356
4.7986e+07,-53.1168
4.80293e+07,-51.7489
4.80727e+07,-51.2588
4.8116e+07,-51.8664
4.81594e+07,-52.1326
4.82027e+07,-52.877
4.82461e+07,-53.3779
4.82894e+07,-53.3733
4.83328e+07,-52.2018
4.83761e+07,-52.5001
4.84195e+07,-51.402
4.84628e+07,-53.5863
4.85062e+07,-52.5861
4.85495e+07,-52.6623
4.85929e+07,-51.8161
4.86362e+07,-52.3831
4.86796e+07,-52.0245
4.87229e+07,-53.946
4.87663e+07,-54.6602
4.88096e+07,-53.1717
4.8853e+07,-54.8023
4.88963e+07,-54.6908
4.89396e+07,-54.7218
4.8983e+07,-55.774
4.90263e+07,-55.1466
4.90697e+07,-55.6841
4.9113e+07,-56.2591
4.91564e+07,-55.5854
4.91997e+07,-56.9597
4.92431e+07,-55.7672
4.92864e+07,-55.6099
4.93298e+07,-57.0769
4.93731e+07,-56.1675
4.94165e+07,-57.4868
4.94598e+07,-55.8136
4.95032e+07,-57.2487
4.95465e+07,-55.3085
4.95899e+07,-57.479
4.96332e+07,-57.6231
4.96766e+07,-57.8366
4.97199e+07,-56.5562
4.97633e+07,-55.2799
4.98066e+07,-57.6785
4.98499e+07,-56.6441
4.98933e+07,-57.3689
4.99366e+07,-57.8755
4.998e+07,-57.5422
5.00233e+07,-57.5037
5.00667e+07,-57.0266
5.011e+07,-57.6166
5.01534e+07,-56.2617
5.01967e+07,-58.8737
5.02401e+07,-58.0028
5.02834e+07,-58.4019
5.03268e+07,-57.8892
5.03701e+07,-56.833
5.04135e+07,-57.5001
5.04568e+07,-58.0708
5.05002e+07,-57.9062
5.05435e+07,-57.4853
5.05869e+07,-57.8435
5.06302e+07,-58.3452
5.06736e+07,-57.3007
5.07169e+07,-57.4776
5.07603e+07,-56.4019
5.08036e+07,-56.2782
5.08469e+07,-55.4578
5.08903e+07,-56.5032
5.09336e+07,-55.2005
5.0977e+07,-56.0157
5.10203e+07,-54.8441
5.10637e+07,-54.4648
5.1107e+07,-54.7127
5.11504e+07,-53.8289
5.11937e+07,-53.9853
5.12371e+07,-52.2977
5.12804e+07,-54.1494
5.13238e+07,-52.1929
5.13671e+07,-53.2903
5.14105e+07,-53.5155
5.14538e+07,-53.8987
5.14972e+07,-54.4887
5.15405e+07,-53.8355
5.15839e+07,-53.2089
5.16272e+07,-51.5924
5.16706e+07,-53.8414
5.17139e+07,-54.0929
5.17573e+07,-53.9644
5.18006e+07,-51.4655
5.18439e+07,-53.4149
5.18873e+07,-53.7067
5.19306e+07,-53.4852
5.1974e+07,-53.3698
5.20173e+07,-52.7942
5.20607e+07,-53.2191
5.2104e+07,-52.5632
5.21474e+07,-54.0609
5.21907e+07,-55.0382
5.22341e+07,-53.3037
5.22774e+07,-53.8661
5.23208e+07,-53.6023
5.23641e+07,-53.7953
5.24075e+07,-53.8547
5.24508e+07,-54.1229
5.24942e+07,-53.1769
5.25375e+07,-53.8732
5.25809e+07,-53.8888
5.26242e+07,-53.3617
5.26676e+07,-54.699
5.27109e+07,-53.9709
5.27543e+07,-54.7248
5.27976e+07,-53.6575
5.28409e+07,-53.1772
5.28843e+07,-54.2721
5.29276e+07,-53.7033
5.2971e+07,-54.6686
5.30143e+07,-53.4606
5.30577e+07,-54.6494
5.3101e+07,-52.2746
5.31444e+07,-53.9568
5.31877e+07,-50.8522
5.32311e+07,-53.6377
5.32744e+07,-53.5383
5.33178e+07,-55.4878
5.33611e+07,-54.5048
5.34045e+07,-54.8206
5.34478e+07,-54.7854
5.34912e+07,-54.9337
5.35345e+07,-52.4629
5.35779e+07,-53.9665
5.36212e+07,-53.8351
5.36646e+07,-53.3169
5.37079e+07,-52.9532
5.37513e+07,-52.5119
5.37946e+07,-53.517
5.38379e+07,-53.2647
5.38813e+07,-53.2323
5.39246e+07,-52.5302
5.3968e+07,-54.1669
5.40113e+07,-52.4828
5.40547e+07,-53.7789
5.4098e+07,-53.9203
5.41414e+07,-54.2829
5.41847e+07,-53.246
5.42281e+07,-55.5899
5.42714e+07,-54.2396
5.43148e+07,-54.3188
5.43581e+07,-53.6417
5.44015e+07,-53.9083
5.44448e+07,-54.1931
5.44882e+07,-54.5984
5.45315e+07,-54.0468
5.45749e+07,-56.1506
5.46182e+07,-54.5842
5.46616e+07,-54.9925
5.47049e+07,-55.2621
5.47482e+07,-54.8887
5.47916e+07,-55.5192
5.48349e+07,-56.1272
5.48783e+07,-54.5988
5.49216e+07,-56.1556
5.4965e+07,-56.2214
5.50083e+07,-57.1776
5.50517e+07,-57.0264
5.5095e+07,-57.1428
5.51384e+07,-57.5233
5.51817e+07,-58.2128
5.52251e+07,-56.9222
5.52684e+07,-56.8372
5.53118e+07,-52.055
5.53551e+07,-57.0096
5.53985e+07,-57.0959
5.54418e+07,-56.8523
5.54852e+07,-57.6773
5.55285e+07,-55.375
5.55719e+07,-56.9031
5.56152e+07,-58.9492
5.56586e+07,-56.4751
5.57019e+07,-58.0005
5.57452e+07,-57.5744
5.57886e+07,-57.8967
5.58319e+07,-58.0689
5.58753e+07,-52.6191
5.59186e+07,-53.9926
5.5962e+07,-55.0495
5.60053e+07,-56.6635
5.60487e+07,-56.7706
5.6092e+07,-57.4556
5.61354e+07,-56.998
5.61787e+07,-55.7173
5.62221e+07,-57.3533
5.62654e+07,-56.6019
5.63088e+07,-55.1979
5.63521e+07,-57.3978
5.63955e+07,-56.4091
5.64388e+07,-56.5003
5.64822e+07,-57.9726
5.65255e+07,-57.5453
5.65689e+07,-57.7229
5.66122e+07,-57.0966
5.66556e+07,-57.1631
5.66989e+07,-58.0943
5.67422e+07,-55.885
5.67856e+07,-56.4651
5.68289e+07,-57.727
5.68723e+07,-56.357
5.69156e+07,-56.3191
5.6959e+07,-55.6332
5.70023e+07,-56.6494
5.70457e+07,-55.946
5.7089e+07,-56.4919
5.71324e+07,-54.8759
5.71757e+07,-56.2248
5.72191e+07,-54.6916
5.72624e+07,-55.4073
5.73058e+07,-55.4034
5.73491e+07,-53.657
5.73925e+07,-53.9467
5.74358e+07,-48.755
5.74792e+07,-48.2026
5.75225e+07,-50.2003
5.75659e+07,-47.7148
5.76092e+07,-52.1369
5.76526e+07,-51.4988
5.76959e+07,-51.6197
5.77392e+07,-52.9992
5.77826e+07,-52.9706
5.78259e+07,-51.4397
5.78693e+07,-50.7946
5.79126e+07,-49.6549
5.7956e+07,-50.7469
5.79993e+07,-52.1089
5.80427e+07,-53.1643
5.8086e+07,-52.0675
5.81294e+07,-51.4593
5.81727e+07,-52.0827
5.82161e+07,-52.688
5.82594e+07,-50.8582
5.83028e+07,-50.5953
5.83461e+07,-52.3658
5.83895e+07,-52.2916
5.84328e+07,-52.9335
5.84762e+07,-51.7134
5.85195e+07,-51.3042
5.85629e+07,-51.6885
5.86062e+07,-51.3618
5.86495e+07,-51.0685
5.86929e+07,-51.2967
5.87362e+07,-51.7807
5.87796e+07,-51.2637
5.88229e+07,-50.7879
5.88663e+07,-50.8813
5.89096e+07,-50.467
5.8953e+07,-51.3977
5.89963e+07,-49.2423
5.90397e+07,-49.3975
5.9083e+07,-50.5707
5.91264e+07,-49.007
5.91697e+07,-47.9665
5.92131e+07,-50.4513
5.92564e+07,-50.9715
5.92998e+07,-50.1929
5.93431e+07,-50.1494
5.93865e+07,-50.1216
5.94298e+07,-50.3966
5.94732e+07,-51.2784
5.95165e+07,-50.4708
5.95599e+07,-50.2483
5.96032e+07,-50.3308
5.96465e+07,-51.4832
5.96899e+07,-49.9926
5.97332e+07,-50.3326
5.97766e+07,-50.1886
5.98199e+07,-49.4401
5.98633e+07,-51.0862
5.99066e+07,-48.4157
5.995e+07,-49.2856
5.99933e+07,-50.6314
6.00367e+07,-49.7279
6.008e+07,-48.2623
6.01234e+07,-49.1934
6.01667e+07,-50.2833
6.02101e+07,-50.9908
6.02534e+07,-49.8091
6.02968e+07,-50.6448
6.03401e+07,-50.1101
6.03835e+07,-51.0953
6.04268e+07,-50.442
6.04702e+07,-51.0665
6.05135e+07,-51.0218
6.05569e+07,-50.6486
6.06002e+07,-50.5379
6.06435e+07,-50.4372
6.06869e+07,-49.4001
6.07302e+07,-50.801
6.07736e+07,-49.9577
6.08169e+07,-52.0712
6.08603e+07,-52.0853
6.09036e+07,-51.2727
6.0947e+07,-51.8753
6.09903e+07,-52.9387
6.10337e+07,-52.6072
6.1077e+07,-52.6729
6.11204e+07,-52.0218
6.11637e+07,-52.7418
6.12071e+07,-52.6919
6.12504e+07,-52.5712
6.12938e+07,-52.649
6.13371e+07,-51.9501
6.13805e+07,-52.4426
6.14238e+07,-51.8341
6.14672e+07,-52.4357
6.15105e+07,-51.8239
6.15539e+07,-52.6539
6.15972e+07,-53.9669
6.16405e+07,-53.538
6.16839e+07,-54.4126
6.17272e+07,-54.7837
6.17706e+07,-54.0049
6.18139e+07,-54.5462
6.18573e+07,-54.8186
6.19006e+07,-55.1766
6.1944e+07,-57.2242
6.19873e+07,-57.4814
6.20307e+07,-56.9381
6.2074e+07,-58.0888
6.21174e+07,-56.5592
6.21607e+07,-57.7116
6.22041e+07,-56.7045
6.22474e+07,-57.2351
6.22908e+07,-58.9462
6.23341e+07,-58.8475
6.23775e+07,-58.2175
6.24208e+07,-59.1875
6.24642e+07,-58.3222
6.25075e+07,-58.1264
6.25509e+07,-58.4603
6.25942e+07,-60.1025
6.26375e+07,-58.1623
6.26809e+07,-58.4172
6.27242e+07,-57.7645
6.27676e+07,-59.5651
6.28109e+07,-59.8372
6.28543e+07,-58.7847
6.28976e+07,-57.8411
6.2941e+07,-58.5565
6.29843e+07,-59.0904
6.30277e+07,-58.3447
6.3071e+07,-58.3366
6.31144e+07,-59.9726
6.31577e+07,-59.1218
6.32011e+07,-59.7238
6.32444e+07,-59.395
6.32878e+07,-59.6958
6.33311e+07,-59.4098
6.33745e+07,-59.8233
6.34178e+07,-59.714
6.34612e+07,-59.8892
6.35045e+07,-59.7107
6.35478e+07,-59.0833
6.35912e+07,-58.881
6.36345e+07,-56.8202
6.36779e+07,-55.2184
6.37212e+07,-56.3636
6.37646e+07,-56.7535
6.38079e+07,-57.1872
6.38513e+07,-53.6076
6.38946e+07,-45.1181
6.3938e+07,-56.5097
6.39813e+07,-57.0375
6.40247e+07,-56.7927
6.4068e+07,-56.8503
6.41114e+07,-57.3172
6.41547e+07,-57.1149
6.41981e+07,-55.512
6.42414e+07,-56.9824
6.42848e+07,-56.6515
6.43281e+07,-57.0823
6.43715e+07,-53.1636
6.44148e+07,-56.278
6.44582e+07,-55.9865
6.45015e+07,-56.0941
6.45448e+07,-55.924
6.45882e+07,-54.7261
6.46315e+07,-56.0509
6.46749e+07,-55.1589
6.47182e+07,-54.7818
6.47616e+07,-56.3611
6.48049e+07,-56.4905
6.48483e+07,-56.3672
6.48916e+07,-56.3482
6.4935e+07,-55.7544
6.49783e+07,-56.9287
6.50217e+07,-55.4056
6.5065e+07,-56.1934
6.51084e+07,-57.3975
6.51517e+07,-57.3241
6.51951e+07,-57.8682
6.52384e+07,-56.803
6.52818e+07,-58.9618
6.53251e+07,-58.7344
6.53685e+07,-58.4724
6.54118e+07,-59.0014
6.54552e+07,-57.748
6.54985e+07,-56.2692
6.55418e+07,-58.3492
6.55852e+07,-58.0011
6.56285e+07,-60.5134
6.56719e+07,-59.5642
6.57152e+07,-60.3016
6.57586e+07,-59.8868
6.58019e+07,-58.466
6.58453e+07,-59.7237
6.58886e+07,-60.0429
6.5932e+07,-60.6531
6.59753e+07,-59.1614
6.60187e+07,-59.0028
6.6062e+07,-55.5535
6.61054e+07,-52.6939
6.61487e+07,-50.5949
6.61921e+07,-49.603
6.62354e+07,-48.7382
6.62788e+07,-47.2441
6.63221e+07,-35.2696
6.63655e+07,-45.523
6.64088e+07,-46.7454
6.64522e+07,-47.1907
6.64955e+07,-46.5919
6.65388e+07,-46.5563
6.65822e+07,-49.293
6.66255e+07,-56.3314
6.66689e+07,-54.4326
6.67122e+07,-54.7245
6.67556e+07,-49.2376
6.67989e+07,-48.4668
6.68423e+07,-48.0454
6.68856e+07,-48.0163
6.6929e+07,-47.1493
6.69723e+07,-47.4742
6.70157e+07,-46.1411
6.7059e+07,-43.0416
6.71024e+07,-43.2674
6.71457e+07,-45.2189
6.71891e+07,-44.2983
6.72324e+07,-43.6964
6.72758e+07,-44.4803
6.73191e+07,-45.8319
6.73625e+07,-45.5911
6.74058e+07,-48.6395
6.74491e+07,-54.252
6.74925e+07,-55.0845
6.75358e+07,-55.602
6.75792e+07,-57.8449
6.76225e+07,-54.7485
6.76659e+07,-55.6637
6.77092e+07,-52.0482
6.77526e+07,-47.844
6.77959e+07,-46.3251
6.78393e+07,-48.0277
6.78826e+07,-46.6215
6.7926e+07,-48.1201
6.79693e+07,-47.3994
6.80127e+07,-49.5532
6.8056e+07,-49.0344
6.80994e+07,-54.9011
6.81427e+07,-51.7284
6.81861e+07,-48.9169
6.82294e+07,-49.0358
6.82728e+07,-51.5118
6.83161e+07,-57.3661
6.83595e+07,-50.755
6.84028e+07,-53.2169
6.84461e+07,-51.6746
6.84895e+07,-47.4539
6.85328e+07,-45.4334
6.85762e+07,-44.3149
6.86195e+07,-45.2546
6.86629e+07,-48.6495
6.87062e+07,-48.913
6.87496e+07,-46.8189
6.87929e+07,-46.3473
6.88363e+07,-50.9338
6.88796e+07,-49.3409
6.8923e+07,-45.9233
6.89663e+07,-44.5621
6.90097e+07,-42.4779
6.9053e+07,-49.8317
6.90964e+07,-52.9363
6.91397e+07,-50.9083
6.91831e+07,-48.8913
6.92264e+07,-50.7673
6.92698e+07,-57.0089
6.93131e+07,-56.6046
6.93565e+07,-55.8287
6.93998e+07,-57.5092
6.94431e+07,-55.3085
6.94865e+07,-51.4045
6.95298e+07,-49.4272
6.95732e+07,-48.7337
6.96165e+07,-49.5071
6.96599e+07,-50.9341
6.97032e+07,-47.1536
6.97466e+07,-50.4068
6.97899e+07,-52.7656
6.98333e+07,-50.892
6.98766e+07,-51.2769
6.992e+07,-51.0506
6.99633e+07,-54.2277
7.00067e+07,-57.8842
7.005e+07,-59.1371
7.00934e+07,-57.9496
7.01367e+07,-56.5831
7.01801e+07,-54.4869
7.02234e+07,-52.2949
7.02668e+07,-49.8846
7.03101e+07,-50.7947
7.03535e+07,-52.0856
7.03968e+07,-53.2651
7.04401e+07,-52.4773
7.04835e+07,-51.5987
7.05268e+07,-50.8432
7.05702e+07,-50.7785
7.06135e+07,-52.9284
7.06569e+07,-50.9724
7.07002e+07,-51.9023
7.07436e+07,-54.9001
7.07869e+07,-58.7545
7.08303e+07,-60.9795
7.08736e+07,-61.4216
7.0917e+07,-61.2308
7.09603e+07,-58.743
7.10037e+07,-60.8225
7.1047e+07,-59.8868
7.10904e+07,-58.6323
7.11337e+07,-55.9021
7.11771e+07,-56.2952
7.12204e+07,-56.7158
7.12638e+07,-54.5509
7.13071e+07,-53.5897
7.13505e+07,-52.5374
7.13938e+07,-56.0898
7.14371e+07,-60.6537
7.14805e+07,-59.1803
7.15238e+07,-56.9876
7.15672e+07,-56.9309
7.16105e+07,-58.9409
7.16539e+07,-62.775
7.16972e+07,-59.327
7.17406e+07,-57.6395
7.17839e+07,-59.1068
7.18273e+07,-59.0778
7.18706e+07,-62.8055
7.1914e+07,-62.3392
7.19573e+07,-63.9404
7.20007e+07,-64.0625
7.2044e+07,-65.8545
7.20874e+07,-58.7542
7.21307e+07,-57.8115
7.21741e+07,-64.1703
7.22174e+07,-66.1162
7.22608e+07,-61.4485
7.23041e+07,-62.5812
7.23474e+07,-65.7039
7.23908e+07,-54.5739
7.24341e+07,-65.3518
7.24775e+07,-67.0538
7.25208e+07,-66.6925
7.25642e+07,-65.9164
7.26075e+07,-66.9101
7.26509e+07,-65.6414
7.26942e+07,-66.3921
7.27376e+07,-65.2154
7.27809e+07,-65.9286
7.28243e+07,-67.8874
7.28676e+07,-65.8588
7.2911e+07,-48.4768
7.29543e+07,-15.0199
7.29977e+07,-48.3195
7.3041e+07,-64.3465
7.30844e+07,-67.9027
7.31277e+07,-67.839
7.31711e+07,-68.9795
7.32144e+07,-69.0976
7.32578e+07,-68.8272
7.33011e+07,-68.3607
7.33444e+07,-69.6353
7.33878e+07,-68.8624
7.34311e+07,-69.3196
7.34745e+07,-68.1526
7.35178e+07,-70.1256
7.35612e+07,-69.9926
7.36045e+07,-69.7523
7.36479e+07,-70.0637
7.36912e+07,-69.654
7.37346e+07,-67.7274
7.37779e+07,-70.1044
7.38213e+07,-70.8891
7.38646e+07,-71.2216
7.3908e+07,-70.3333
7.39513e+07,-70.1143
7.39947e+07,-70.5144
7.4038e+07,-70.8774
7.40814e+07,-70.8213
7.41247e+07,-71.3743
7.41681e+07,-71.151
7.42114e+07,-71.1162
7.42548e+07,-72.0801
7.42981e+07,-70.546
7.43414e+07,-70.6438
7.43848e+07,-72.054
7.44281e+07,-71.6762
7.44715e+07,-72.1835
7.45148e+07,-70.2582
7.45582e+07,-71.0349
7.46015e+07,-70.0104
7.46449e+07,-65.5449
7.46882e+07,-64.3531
7.47316e+07,-69.8789
7.47749e+07,-70.61
7.48183e+07,-70.6208
7.48616e+07,-70.6535
7.4905e+07,-71.1261
7.49483e+07,-69.1947
7.49917e+07,-71.3603
7.5035e+07,-70.0502
7.50784e+07,-70.091
7.51217e+07,-71.0221
7.51651e+07,-71.3956
7.52084e+07,-71.0562
7.52518e+07,-70.5546
7.52951e+07,-70.7074
7.53384e+07,-70.8742
7.53818e+07,-69.8974
7.54251e+07,-69.7776
7.54685e+07,-69.1473
7.55118e+07,-68.8218
7.55552e+07,-67.9608
7.55985e+07,-70.4354
7.56419e+07,-70.0589
7.56852e+07,-70.4245
7.57286e+07,-68.9194
7.57719e+07,-68.9823
7.58153e+07,-69.9467
7.58586e+07,-68.759
7.5902e+07,-67.3999
7.59453e+07,-69.5419
7.59887e+07,-70.1507
7.6032e+07,-68.4132
7.60754e+07,-69.0088
7.61187e+07,-69.6189
7.61621e+07,-68.6012
7.62054e+07,-68.2534
7.62487e+07,-68.5923
7.62921e+07,-69.7163
7.63354e+07,-65.8441
7.63788e+07,-65.1251
7.64221e+07,-67.7209
7.64655e+07,-62.942
7.65088e+07,-68.9175
7.65522e+07,-66.5179
7.65955e+07,-66.3961
7.66389e+07,-68.7132
7.66822e+07,-69.492
7.67256e+07,-69.9546
7.67689e+07,-67.3004
7.68123e+07,-67.8778
7.68556e+07,-66.7657
7.6899e+07,-67.9736
7.69423e+07,-67.4276
7.69857e+07,-69.3581
7.7029e+07,-68.5044
7.70724e+07,-69.6948
7.71157e+07,-68.5816
7.71591e+07,-67.6259
7.72024e+07,-69.0789
7.72457e+07,-67.9166
7.72891e+07,-68.5553
7.73324e+07,-67.6332
7.73758e+07,-68.9065
7.74191e+07,-66.7995
7.74625e+07,-68.1677
7.75058e+07,-68.8525
7.75492e+07,-68.0043
7.75925e+07,-66.2737
7.76359e+07,-69.0778
7.76792e+07,-68.6409
7.77226e+07,-67.6322
7.77659e+07,-68.5027
7.78093e+07,-67.5243
7.78526e+07,-68.8874
7.7896e+07,-68.291
7.79393e+07,-67.0988
7.79827e+07,-68.8514
7.8026e+07,-67.5468
7.80694e+07,-67.6391
7.81127e+07,-68.1579
7.81561e+07,-68.3659
7.81994e+07,-69.1315
7.82427e+07,-68.332
7.82861e+07,-67.9864
7.83294e+07,-68.3908
7.83728e+07,-68.433
7.84161e+07,-67.1487
7.84595e+07,-66.6298
7.85028e+07,-67.2665
7.85462e+07,-68.4072
7.85895e+07,-66.6157
7.86329e+07,-67.9373
7.86762e+07,-67.1335
7.87196e+07,-67.446
7.87629e+07,-67.8413
7.88063e+07,-67.9369
7.88496e+07,-67.4533
7.8893e+07,-68.2303
7.89363e+07,-68.1559
7.89797e+07,-67.4834
7.9023e+07,-65.8503
7.90664e+07,-66.4643
7.91097e+07,-68.1473
7.91531e+07,-68.238
7.91964e+07,-67.0594
7.92397e+07,-68.2961
7.92831e+07,-67.9518
7.93264e+07,-67.3616
7.93698e+07,-67.6593
7.94131e+07,-66.9437
7.94565e+07,-68.0809
7.94998e+07,-68.6888
7.95432e+07,-68.5241
7.95865e+07,-66.2359
7.96299e+07,-67.6742
7.96732e+07,-66.4291
7.97166e+07,-67.6662
7.97599e+07,-67.4891
7.98033e+07,-68.9998
7.98466e+07,-68.0718
7.989e+07,-57.0816
7.99333e+07,-56.3881
7.99767e+07,-67.3375
8.002e+07,-66.9494
8.00634e+07,-67.8939
8.01067e+07,-68.8909
8.01501e+07,-67.99
8.01934e+07,-67.9496
8.02367e+07,-68.006
8.02801e+07,-69.1449
8.03234e+07,-69.0531
8.03668e+07,-68.0625
8.04101e+07,-67.7584
8.04535e+07,-67.3139
8.04968e+07,-68.7744
8.05402e+07,-69.3496
8.05835e+07,-69.0434
8.06269e+07,-68.6251
8.06702e+07,-68.0862
8.07136e+07,-68.9434
8.07569e+07,-68.4443
8.08003e+07,-68.4527
8.08436e+07,-68.4526
8.0887e+07,-68.668
8.09303e+07,-67.6245
8.09737e+07,-68.4268
8.1017e+07,-68.8085
8.10604e+07,-67.9075
8.11037e+07,-69.0057
8.1147e+07,-68.8795
8.11904e+07,-68.6848
8.12337e+07,-69.0145
8.12771e+07,-69.2166
8.13204e+07,-68.0764
8.13638e+07,-69.0051
8.14071e+07,-68.5025
8.14505e+07,-69.0413
8.14938e+07,-68.2075
8.15372e+07,-68.8785
8.15805e+07,-68.0921
8.16239e+07,-67.3937
8.16672e+07,-68.5966
8.17106e+07,-68.5275
8.17539e+07,-67.4615
8.17973e+07,-68.3993
8.18406e+07,-68.1161
8.1884e+07,-68.4501
8.19273e+07,-67.9214
8.19707e+07,-68.9223
8.2014e+07,-53.3622
8.20574e+07,-60.111
8.21007e+07,-69.0397
8.2144e+07,-69.5656
8.21874e+07,-69.6923
8.22307e+07,-68.1644
8.22741e+07,-68.4577
8.23174e+07,-67.5518
8.23608e+07,-67.5363
8.24041e+07,-67.8883
8.24475e+07,-68.5774
8.24908e+07,-69.112
8.25342e+07,-68.4145
8.25775e+07,-68.6117
8.26209e+07,-68.5339
8.26642e+07,-67.1458
8.27076e+07,-66.1955
8.27509e+07,-67.2786
8.27943e+07,-65.1678
8.28376e+07,-65.098
8.2881e+07,-64.6356
8.29243e+07,-67.3981
8.29677e+07,-67.4586
8.3011e+07,-69.4864
8.30544e+07,-68.3457
8.30977e+07,-68.6366
8.3141e+07,-67.9667
8.31844e+07,-66.3669
8.32277e+07,-58.0097
8.32711e+07,-45.0981
8.33144e+07,-60.4234
8.33578e+07,-65.0218
8.34011e+07,-66.2135
8.34445e+07,-65.1721
8.34878e+07,-67.4118
8.35312e+07,-66.5969
8.35745e+07,-66.6937
8.36179e+07,-67.9093
8.36612e+07,-65.9854
8.37046e+07,-66.1734
8.37479e+07,-67.5177
8.37913e+07,-65.2123
8.38346e+07,-65.2651
8.3878e+07,-66.0106
8.39213e+07,-68.2017
8.39647e+07,-63.5552
8.4008e+07,-66.8543
8.40514e+07,-63.861
8.40947e+07,-66.9826
8.4138e+07,-66.0358
8.41814e+07,-67.64
8.42247e+07,-68.4871
8.42681e+07,-67.9963
8.43114e+07,-68.4103
8.43548e+07,-68.5125
8.43981e+07,-68.8182
8.44415e+07,-69.4734
8.44848e+07,-69.9562
8.45282e+07,-70.3077
8.45715e+07,-69.3967
8.46149e+07,-64.1664
8.46582e+07,-67.3338
8.47016e+07,-63.9148
8.47449e+07,-65.3282
8.47883e+07,-67.2144
8.48316e+07,-67.1627
8.4875e+07,-68.0191
8.49183e+07,-70.0674
8.49617e+07,-70.4129
8.5005e+07,-70.0775
8.50483e+07,-70.212
8.50917e+07,-70.3064
8.5135e+07,-69.5101
8.51784e+07,-70.0258
8.52217e+07,-69.5485
8.52651e+07,-69.3099
8.53084e+07,-69.4713
8.53518e+07,-70.1489
8.53951e+07,-69.5966
8.54385e+07,-68.932
8.54818e+07,-67.5519
8.55252e+07,-66.1298
8.55685e+07,-66.1558
8.56119e+07,-69.7038
8.56552e+07,-68.4495
8.56986e+07,-68.8507
8.57419e+07,-69.5087
8.57853e+07,-70.1686
8.58286e+07,-69.8522
8.5872e+07,-69.5566
8.59153e+07,-69.0854
8.59587e+07,-69.8319
8.6002e+07,-69.7225
8.60453e+07,-69.4887
8.60887e+07,-69.6633
8.6132e+07,-68.1964
8.61754e+07,-69.5753
8.62187e+07,-69.8113
8.62621e+07,-69.7615
8.63054e+07,-69.0936
8.63488e+07,-69.488
8.63921e+07,-69.4879
8.64355e+07,-69.3922
8.64788e+07,-69.5552
8.65222e+07,-69.1391
8.65655e+07,-69.2318
8.66089e+07,-68.6455
8.66522e+07,-68.7331
8.66956e+07,-68.6366
8.67389e+07,-67.0123
8.67823e+07,-68.3536
8.68256e+07,-68.303
8.6869e+07,-68.6362
8.69123e+07,-68.0142
8.69557e+07,-67.1575
8.6999e+07,-67.4413
8.70423e+07,-67.3205
8.70857e+07,-67.4867
8.7129e+07,-67.933
8.71724e+07,-66.364
8.72157e+07,-67.1716
8.72591e+07,-67.2603
8.73024e+07,-66.5057
8.73458e+07,-66.6153
8.73891e+07,-64.5918
8.74325e+07,-65.5081
8.74758e+07,-64.9376
8.75192e+07,-64.6905
8.75625e+07,-65.3273
8.76059e+07,-62.1557
8.76492e+07,-58.259
8.76926e+07,-45.3306
8.77359e+07,-35.1766
8.77793e+07,-36.3669
8.78226e+07,-38.4504
8.7866e+07,-54.5195
8.79093e+07,-60.2948
8.79527e+07,-60.298
8.7996e+07,-57.9599
8.80393e+07,-58.1793
8.80827e+07,-45.4768
8.8126e+07,-45.0691
8.81694e+07,-45.9977
8.82127e+07,-56.7767
8.82561e+07,-55.4122
8.82994e+07,-52.4668
8.83428e+07,-51.8763
8.83861e+07,-32.0499
8.84295e+07,-10.2156
8.84728e+07,2.61255
8.85162e+07,2.75346
8.85595e+07,2.72723
8.86029e+07,-20.4127
8.86462e+07,-20.1253
8.86896e+07,-50.1959
8.87329e+07,-51.8488
8.87763e+07,-55.4053
8.88196e+07,-57.3311
8.8863e+07,-49.2403
8.89063e+07,-46.4488
8.89496e+07,-47.073
8.8993e+07,-53.0913
8.90363e+07,-58.2689
8.90797e+07,-54.1768
8.9123e+07,-53.6084
8.91664e+07,-53.6984
8.92097e+07,-60.9894
8.92531e+07,-58.2763
8.92964e+07,-52.9735
8.93398e+07,-50.4958
8.93831e+07,-56.0383
8.94265e+07,-59.6919
8.94698e+07,-54.1216
8.95132e+07,-55.1526
8.95565e+07,-57.0584
8.95999e+07,-61.1159
8.96432e+07,-62.0277
8.96866e+07,-55.1521
8.97299e+07,-53.0387
8.97733e+07,-55.1834
8.98166e+07,-64.674
8.986e+07,-65.0291
8.99033e+07,-65.1858
8.99466e+07,-62.6914
8.999e+07,-64.1691
9.00333e+07,-65.9509
9.00767e+07,-55.4079
9.012e+07,-38.804
9.01634e+07,-37.0897
9.02067e+07,-39.2251
9.02501e+07,-67.9014
9.02934e+07,-66.7545
9.03368e+07,-66.4711
9.03801e+07,-66.4575
9.04235e+07,-51.6452
9.04668e+07,-35.8051
9.05102e+07,-35.6437
9.05535e+07,-36.0016
9.05969e+07,-36.882
9.06402e+07,-59.8365
9.06836e+07,-58.8186
9.07269e+07,-56.5034
9.07703e+07,-55.429
9.08136e+07,-64.502
9.0857e+07,-60.8705
9.09003e+07,-56.9705
9.09436e+07,-48.8649
9.0987e+07,-49.8941
9.10303e+07,-57.0204
9.10737e+07,-45.7085
9.1117e+07,-45.7841
9.11604e+07,-50.414
9.12037e+07,-55.7642
9.12471e+07,-66.6475
9.12904e+07,-66.9509
9.13338e+07,-37.0475
9.13771e+07,-38.5918
9.14205e+07,-49.8108
9.14638e+07,-32.6976
9.15072e+07,-21.2874
9.15505e+07,-22.4582
9.15939e+07,-29.8087
9.16372e+07,-47.9053
9.16806e+07,-43.5303
9.17239e+07,-46.5724
9.17673e+07,-63.0507
9.18106e+07,-61.7933
9.1854e+07,-61.4661
9.18973e+07,-56.52
9.19406e+07,-55.8441
9.1984e+07,-60.6425
9.20273e+07,-61.1027
9.20707e+07,-59.8173
9.2114e+07,-29.8424
9.21574e+07,-27.4739
9.22007e+07,-28.7319
9.22441e+07,-12.855
9.22874e+07,-11.7087
9.23308e+07,-12.2638
9.23741e+07,-12.1732
9.24175e+07,-25.3046
9.24608e+07,-27.8217
9.25042e+07,-28.0673
9.25475e+07,-37.5317
9.25909e+07,-64.8516
9.26342e+07,-63.4283
9.26776e+07,-59.2647
9.27209e+07,-58.5393
9.27643e+07,-59.3091
9.28076e+07,-64.7278
9.2851e+07,-65.6484
9.28943e+07,-65.2021
9.29376e+07,-48.1338
9.2981e+07,-49.073
9.30243e+07,-44.8607
9.30677e+07,-35.8384
9.3111e+07,-32.679
9.31544e+07,-31.2104
9.31977e+07,-30.9915
9.32411e+07,-54.8925
9.32844e+07,-53.1263
9.33278e+07,-52.0162
9.33711e+07,-66.3558
9.34145e+07,-66.3088
9.34578e+07,-64.2499
9.35012e+07,-56.4172
9.35445e+07,-54.8524
9.35879e+07,-51.2552
9.36312e+07,-68.9938
9.36746e+07,-70.3069
9.37179e+07,-48.9681
9.37613e+07,-46.3461
9.38046e+07,-45.3673
9.38479e+07,-36.1511
9.38913e+07,-24.3229
9.39346e+07,-23.8735
9.3978e+07,-44.4027
9.40213e+07,-65.7326
9.40647e+07,-40.0652
9.4108e+07,-40.675
9.41514e+07,-56.4908
9.41947e+07,-71.5918
9.42381e+07,-64.51
9.42814e+07,-55.9068
9.43248e+07,-53.9507
9.43681e+07,-54.9492
9.44115e+07,-64.9209
9.44548e+07,-71.8401
9.44982e+07,-56.6642
9.45415e+07,-42.3842
9.45849e+07,-42.7646
9.46282e+07,-38.0994
9.46716e+07,-23.2098
9.47149e+07,-20.9946
9.47583e+07,-22.5362
9.48016e+07,-27.1136
9.48449e+07,-45.0703
9.48883e+07,-44.3567
9.49316e+07,-44.696
9.4975e+07,-71.6145
9.50183e+07,-68.3085
9.50617e+07,-43.0281
9.5105e+07,-41.7426
9.51484e+07,-41.8863
9.51917e+07,-60.9714
9.52351e+07,-67.6757
9.52784e+07,-71.3234
9.53218e+07,-55.1404
9.53651e+07,-53.6601
9.54085e+07,-46.6333
9.54518e+07,-28.3347
9.54952e+07,-27.8158
9.55385e+07,-28.5058
9.55819e+07,-31.409
9.56252e+07,-55.7834
9.56686e+07,-52.9009
9.57119e+07,-51.0552
9.57553e+07,-70.7803
9.57986e+07,-73.0837
9.58419e+07,-60.2524
9.58853e+07,-56.9654
9.59286e+07,-53.2779
9.5972e+07,-57.7566
9.60153e+07,-64.1026
9.60587e+07,-72.9529
9.6102e+07,-55.5856
9.61454e+07,-44.9446
9.61887e+07,-44.9812
9.62321e+07,-55.7363
9.62754e+07,-36.1758
9.63188e+07,-33.0226
9.63621e+07,-34.2968
9.64055e+07,-33.7206
9.64488e+07,-47.9629
9.64922e+07,-46.2781
9.65355e+07,-47.0555
9.65789e+07,-73.5151
9.66222e+07,-59.0211
9.66656e+07,-48.6546
9.67089e+07,-48.1668
9.67523e+07,-49.0814
9.67956e+07,-48.6438
9.68389e+07,-67.2447
9.68823e+07,-68.4311
9.69256e+07,-49.2125
9.6969e+07,-48.5728
9.70123e+07,-51.124
9.70557e+07,-40.5998
9.7099e+07,-25.9525
9.71424e+07,-25.7866
9.71857e+07,-27.8744
9.72291e+07,-46.8808
9.72724e+07,-45.0963
9.73158e+07,-45.1195
9.73591e+07,-72.6812
9.74025e+07,-71.0143
9.74458e+07,-45.1977
9.74892e+07,-40.7454
9.75325e+07,-41.148
9.75759e+07,-44.2368
9.76192e+07,-70.1818
9.76626e+07,-73.9042
9.77059e+07,-60.228
9.77492e+07,-51.1129
9.77926e+07,-48.0622
9.78359e+07,-34.7001
9.78793e+07,-34.4016
9.79226e+07,-34.6424
9.7966e+07,-31.9207
9.80093e+07,-34.8518
9.80527e+07,-48.0861
9.8096e+07,-50.4413
9.81394e+07,-55.3128
9.81827e+07,-73.7284
9.82261e+07,-72.0096
9.82694e+07,-60.6517
9.83128e+07,-62.2926
9.83561e+07,-62.5359
9.83995e+07,-63.0485
9.84428e+07,-73.254
9.84862e+07,-73.7591
9.85295e+07,-46.1456
9.85729e+07,-47.6607
9.86162e+07,-51.947
9.86596e+07,-43.8909
9.87029e+07,-27.8423
9.87462e+07,-27.9532
9.87896e+07,-46.835
9.88329e+07,-58.3597
9.88763e+07,-47.9903
9.89196e+07,-49.8398
9.8963e+07,-74.0628
9.90063e+07,-75.1021
9.90497e+07,-74.2274
9.9093e+07,-48.6025
9.91364e+07,-34.4139
9.91797e+07,-64.3795
9.92231e+07,-74.7942
9.92664e+07,-74.8297
9.93098e+07,-55.7725
9.93531e+07,-53.1014
9.93965e+07,-49.7388
9.94398e+07,-35.8365
9.94832e+07,-34.9033
9.95265e+07,-36.5485
9.95699e+07,-36.5577
9.96132e+07,-37.1374
9.96566e+07,-51.8821
9.96999e+07,-49.9909
9.97432e+07,-53.5413
9.97866e+07,-73.6932
9.98299e+07,-64.0728
9.98733e+07,-50.5617
9.99166e+07,-48.6214
9.996e+07,-48.6791
1.00003e+08,-55.9842
1.00047e+08,-70.3659
1.0009e+08,-75.5528
1.00133e+08,-67.6483
1.00177e+08,-67.2665
1.0022e+08,-57.6892
1.00263e+08,-46.6043
1.00307e+08,-36.2596
1.0035e+08,-37.6153
1.00393e+08,-38.6384
1.00437e+08,-53.6838
1.0048e+08,-60.9082
1.00524e+08,-60.6219
1.00567e+08,-70.2376
1.0061e+08,-69.8972
1.00654e+08,-57.9091
1.00697e+08,-54.9575
1.0074e+08,-54.6165
1.00784e+08,-56.4404
1.00827e+08,-73.5973
1.0087e+08,-74.2397
1.00914e+08,-55.1584
1.00957e+08,-53.1946
1.01e+08,-55.1434
1.01044e+08,-44.2749
1.01087e+08,-35.4138
1.0113e+08,-36.0937
1.01174e+08,-39.4499
1.01217e+08,-42.0395
1.0126e+08,-57.9689
1.01304e+08,-58.6617
1.01347e+08,-57.6518
1.0139e+08,-75.2261
1.01434e+08,-72.5745
1.01477e+08,-58.3775
1.01521e+08,-55.8652
1.01564e+08,-56.3509
1.01607e+08,-62.4892
1.01651e+08,-75.3194
1.01694e+08,-73.6886
1.01737e+08,-56.479
1.01781e+08,-55.8525
1.01824e+08,-54.3212
1.01867e+08,-46.0872
1.01911e+08,-47.891
1.01954e+08,-47.7302
1.01997e+08,-48.9084
1.02041e+08,-63.934
1.02084e+08,-58.2693
1.02127e+08,-60.5248
1.02171e+08,-73.245
1.02214e+08,-76.1497
1.02257e+08,-64.5945
1.02301e+08,-63.7222
1.02344e+08,-63.2201
1.02387e+08,-63.016
1.02431e+08,-75.4892
1.02474e+08,-75.6054
1.02518e+08,-63.6327
1.02561e+08,-61.7833
1.02604e+08,-60.5892
1.02648e+08,-43.7982
1.02691e+08,-40.5924
1.02734e+08,-39.7585
1.02778e+08,-41.582
1.02821e+08,-54.9
1.02864e+08,-65.249
1.02908e+08,-63.8509
1.02951e+08,-70.4663
1.02994e+08,-76.3369
1.03038e+08,-72.0757
1.03081e+08,-71.0931
1.03124e+08,-72.893
1.03168e+08,-68.519
1.03211e+08,-69.8405
1.03254e+08,-76.3362
1.03298e+08,-76.4645
1.03341e+08,-64.559
1.03384e+08,-63.7196
1.03428e+08,-54.9926
1.03471e+08,-42.5713
1.03515e+08,-43.1374
1.03558e+08,-38.9871
1.03601e+08,-38.4182
1.03645e+08,-55.78
1.03688e+08,-60.344
1.03731e+08,-60.1014
1.03775e+08,-74.9446
1.03818e+08,-75.2577
1.03861e+08,-67.0802
1.03905e+08,-62.2204
1.03948e+08,-61.3345
1.03991e+08,-64.0783
1.04035e+08,-71.9187
1.04078e+08,-70.9525
1.04121e+08,-53.2181
1.04165e+08,-52.0873
1.04208e+08,-52.2981
1.04251e+08,-36.5299
1.04295e+08,-35.0576
1.04338e+08,-36.774
1.04381e+08,-38.3643
1.04425e+08,-40.7249
1.04468e+08,-53.4686
1.04512e+08,-54.86
1.04555e+08,-69.3677
1.04598e+08,-75.6198
1.04642e+08,-67.0055
1.04685e+08,-54.2489
1.04728e+08,-51.3389
1.04772e+08,-52.2356
1.04815e+08,-64.0556
1.04858e+08,-76.0812
1.04902e+08,-73.2832
1.04945e+08,-67.8901
1.04988e+08,-66.281
1.05032e+08,-55.1931
1.05075e+08,-43.021
1.05118e+08,-40.9994
1.05162e+08,-42.0394
1.05205e+08,-43.4702
1.05248e+08,-66.903
1.05292e+08,-69.0022
1.05335e+08,-70.4931
1.05378e+08,-75.4821
1.05422e+08,-71.0066
1.05465e+08,-58.5607
1.05509e+08,-57.8215
1.05552e+08,-58.2928
1.05595e+08,-56.3753
1.05639e+08,-69.8146
1.05682e+08,-75.272
1.05725e+08,-57.0356
1.05769e+08,-55.3816
1.05812e+08,-55.2379
1.05855e+08,-52.2449
1.05899e+08,-38.7671
1.05942e+08,-37.6174
1.05985e+08,-36.4399
1.06029e+08,-66.1394
1.06072e+08,-58.8212
1.06115e+08,-58.2278
1.06159e+08,-54.7368
1.06202e+08,-56.2467
1.06245e+08,-51.832
1.06289e+08,-40.7911
1.06332e+08,-40.5795
1.06375e+08,-41.5703
1.06419e+08,-41.7653
1.06462e+08,-57.4805
1.06506e+08,-58.2773
1.06549e+08,-60.9008
1.06592e+08,-72.2246
1.06636e+08,-69.1278
1.06679e+08,-62.1929
1.06722e+08,-63.2707
1.06766e+08,-65.0869
1.06809e+08,-60.5135
1.06852e+08,-74.2923
1.06896e+08,-73.7389
1.06939e+08,-73.676
1.06982e+08,-76.159
1.07026e+08,-76.1798
1.07069e+08,-71.3189
1.07112e+08,-66.9417
1.07156e+08,-66.2891
1.07199e+08,-74.6166
1.07242e+08,-76.4982
1.07286e+08,-74.3587
1.07329e+08,-69.9114
1.07372e+08,-65.2441
1.07416e+08,-64.9927
1.07459e+08,-47.137
1.07503e+08,-41.3961
1.07546e+08,-42.7428
1.07589e+08,-48.3221
1.07633e+08,-64.2052
1.07676e+08,-62.5612
1.07719e+08,-64.2949
1.07763e+08,-67.4218
1.07806e+08,-68.3368
1.07849e+08,-63.561
1.07893e+08,-52.436
1.07936e+08,-51.6674
1.07979e+08,-51.306
1.08023e+08,-74.6321
1.08066e+08,-67.255
1.08109e+08,-66.9682
1.08153e+08,-72.6831
1.08196e+08,-76.7598
1.08239e+08,-75.8692
1.08283e+08,-74.8977
1.08326e+08,-75.3412
1.08369e+08,-75.5523
1.08413e+08,-76.2815
1.08456e+08,-76.0519
1.08499e+08,-74.9695
1.08543e+08,-74.8791
1.08586e+08,-73.672
1.0863e+08,-75.9492
1.08673e+08,-76.2808
1.08716e+08,-75.9287
1.0876e+08,-75.5903
1.08803e+08,-75.9896
1.08846e+08,-75.0051
1.0889e+08,-75.6684
1.08933e+08,-76.5159
1.08976e+08,-75.4158
1.0902e+08,-76.3224
1.09063e+08,-75.454
1.09106e+08,-76.5154
1.0915e+08,-76.0503
1.09193e+08,-75.3962
1.09236e+08,-74.2865
1.0928e+08,-75.492
1.09323e+08,-76.2161
1.09366e+08,-75.8263
1.0941e+08,-75.2443
1.09453e+08,-74.9491
1.09496e+08,-75.9472
1.0954e+08,-75.8258
1.09583e+08,-75.3953
1.09627e+08,-76.6675
1.0967e+08,-75.4142
1.09713e+08,-76.0695
1.09757e+08,-75.4908
1.098e+08,-75.3757
1.09843e+08,-75.7851
1.09887e+08,-75.666
1.0993e+08,-74.5579
1.09973e+08,-75.3943
1.10017e+08,-74.2679
1.1006e+08,-74.523
1.10103e+08,-74.5402
1.10147e+08,-75.0937
1.1019e+08,-74.8931
1.10233e+08,-74.875
1.10277e+08,-74.8749
1.1032e+08,-75.7242
1.10363e+08,-75.9654
1.10407e+08,-75.7042
1.1045e+08,-76.1507
1.10493e+08,-75.3931
1.10537e+08,-75.5276
1.1058e+08,-76.0263
1.10624e+08,-70.5675
1.10667e+08,-73.2993
1.1071e+08,-75.8632
1.10754e+08,-75.7829
1.10797e+08,-76.3607
1.1084e+08,-76.6425
1.10884e+08,-75.9438
1.10927e+08,-75.2594
1.1097e+08,-76.0254
1.11014e+08,-77.3539
1.11057e+08,-75.2968
1.111e+08,-76.275
1.11144e+08,-75.663
1.11187e+08,-76.5104
1.1123e+08,-75.5648
1.11274e+08,-76.5102
1.11317e+08,-77.0245
1.1136e+08,-74.5199
1.11404e+08,-75.0907
1.11447e+08,-74.5542
1.1149e+08,-74.694
1.11534e+08,-74.4164
1.11577e+08,-75.9625
1.11621e+08,-75.6815
1.11664e+08,-76.0032
1.11707e+08,-76.2104
1.11751e+08,-75.2387
1.11794e+08,-76.7736
1.11837e+08,-76.7511
1.11881e+08,-76.9087
1.11924e+08,-75.3515
1.11967e+08,-77.0691
1.12011e+08,-76.7061
1.12054e+08,-76.7506
1.12097e+08,-75.6018
1.12141e+08,-76.8627
1.12184e+08,-75.8597
1.12227e+08,-76.0429
1.12271e+08,-76.2511
1.12314e+08,-76.3998
1.12357e+08,-75.799
1.12401e+08,-75.8592
1.12444e+08,-75.739
1.12487e+08,-75.8388
1.12531e+08,-76.4855
1.12574e+08,-75.8386
1.12618e+08,-76.5724
1.12661e+08,-75.9395
1.12704e+08,-76.9982
1.12748e+08,-75.9597
1.12791e+08,-77.0903
1.12834e+08,-76.8837
1.12878e+08,-76.4415
1.12921e+08,-76.1032
1.12964e+08,-76.3983
1.13008e+08,-75.4445
1.13051e+08,-75.0683
1.13094e+08,-77.3969
1.13138e+08,-75.8776
1.13181e+08,-76.165
1.13224e+08,-76.9055
1.13268e+08,-75.9381
1.13311e+08,-76.5926
1.13354e+08,-76.3545
1.13398e+08,-76.4618
1.13441e+08,-75.482
1.13484e+08,-74.6892
1.13528e+08,-75.9987
1.13571e+08,-75.8564
1.13615e+08,-75.4623
1.13658e+08,-76.5045
1.13701e+08,-76.3537
1.13745e+08,-74.8307
1.13788e+08,-74.7592
1.13831e+08,-76.3748
1.13875e+08,-75.8758
1.13918e+08,-75.0662
1.13961e+08,-75.2334
1.14005e+08,-77.1107
1.14048e+08,-74.6702
1.14091e+08,-74.7763
1.14135e+08,-76.121
1.14178e+08,-77.2039
1.14221e+08,-75.1953
1.14265e+08,-74.8115
1.14308e+08,-76.5029
1.14351e+08,-76.6562
1.14395e+08,-76.8347
1.14438e+08,-75.976
1.14481e+08,-76.3092
1.14525e+08,-76.857
1.14568e+08,-75.2883
1.14612e+08,-76.5458
1.14655e+08,-75.7337
1.14698e+08,-75.3259
1.14742e+08,-76.1196
1.14785e+08,-76.7664
1.14828e+08,-76.3938
1.14872e+08,-75.975
1.14915e+08,-76.5232
1.14958e+08,-75.6538
1.15002e+08,-77.0156
1.15045e+08,-76.3505
1.15088e+08,-76.4362
1.15132e+08,-76.3289
1.15175e+08,-76.8103
1.15218e+08,-76.3928
1.15262e+08,-76.3074
1.15305e+08,-76.6318
1.15348e+08,-75.5161
1.15392e+08,-76.7425
1.15435e+08,-75.7119
1.15478e+08,-75.994
1.15522e+08,-75.5936
1.15565e+08,-76.0968
1.15609e+08,-75.2482
1.15652e+08,-76.8769
1.15695e+08,-74.1874
1.15739e+08,-76.4346
1.15782e+08,-76.5429
1.15825e+08,-77.0599
1.15869e+08,-76.1794
1.15912e+08,-76.4774
1.15955e+08,-76.0959
1.15999e+08,-76.4772
1.16042e+08,-76.5423
1.16085e+08,-76.477
1.16129e+08,-76.0955
1.16172e+08,-76.1996
1.16215e+08,-76.9897
1.16259e+08,-77.3413
1.16302e+08,-76.0951
1.16345e+08,-76.6073
1.16389e+08,-76.8979
1.16432e+08,-75.0418
1.16475e+08,-76.607
1.16519e+08,-76.0738
1.16562e+08,-75.7689
1.16606e+08,-77.732
1.16649e+08,-77.1745
1.16692e+08,-76.2194
1.16736e+08,-76.1983
1.16779e+08,-75.889
1.16822e+08,-75.9295
1.16866e+08,-76.5185
1.16909e+08,-76.4103
1.16952e+08,-76.4966
1.16996e+08,-76.282
1.17039e+08,-76.1348
1.17082e+08,-77.1969
1.17126e+08,-76.4313
1.17169e+08,-74.6627
1.17212e+08,-76.5395
1.17256e+08,-76.3451
1.17299e+08,-72.8732
1.17342e+08,-76.0306
1.17386e+08,-76.1758
1.17429e+08,-75.4917
1.17472e+08,-75.4146
1.17516e+08,-75.8469
1.17559e+08,-76.3444
1.17603e+08,-75.4527
1.17646e+08,-75.3759
1.17689e+08,-75.3567
1.17733e+08,-76.3227
1.17776e+08,-75.433
1.17819e+08,-75.6272
1.17863e+08,-75.6271
1.17906e+08,-75.1864
1.17949e+08,-76.4293
1.17993e+08,-75.8457
1.18036e+08,-75.1117
1.18079e+08,-76.4074
1.18123e+08,-76.1531
1.18166e+08,-76.8031
1.18209e+08,-76.2368
1.18253e+08,-75.6656
1.18296e+08,-76.0903
1.18339e+08,-74.5377
1.18383e+08,-75.0371
1.18426e+08,-74.4856
1.18469e+08,-76.8929
1.18513e+08,-77.2407
1.18556e+08,-74.7123
1.186e+08,-75.8241
1.18643e+08,-75.8442
1.18686e+08,-75.9863
1.1873e+08,-76.2778
1.18773e+08,-75.3923
1.18816e+08,-75.6052
1.1886e+08,-76.1513
1.18903e+08,-75.8435
1.18946e+08,-75.3728
1.1899e+08,-74.5361
1.19033e+08,-75.965
1.19076e+08,-75.2775
1.1912e+08,-75.9444
1.19163e+08,-75.3532
1.19206e+08,-74.5183
1.1925e+08,-75.9034
1.19293e+08,-75.3529
1.19336e+08,-76.0464
1.1938e+08,-74.835
1.19423e+08,-76.7105
1.19466e+08,-74.4487
1.1951e+08,-76.7326
1.19553e+08,-76.0459
1.19597e+08,-76.4902
1.1964e+08,-76.2123
1.19683e+08,-76.4036
1.19727e+08,-76.425
1.1977e+08,-75.3517
1.19813e+08,-76.577
1.19857e+08,-76.2751
1.199e+08,-75.6814
1.19943e+08,-75.4278
1.19987e+08,-75.9627
1.2003e+08,-74.6734
1.20073e+08,-75.313
1.20117e+08,-76.821
1.2016e+08,-76.6865
1.20203e+08,-76.4454
1.20247e+08,-75.5822
1.2029e+08,-76.0441
1.20333e+08,-75.2934
1.20377e+08,-76.7083
1.2042e+08,-76.8202
1.20463e+08,-76.1684
1.20507e+08,-75.8397
1.2055e+08,-75.3308
1.20594e+08,-75.0502
1.20637e+08,-75.8192
1.2068e+08,-75.7192
1.20724e+08,-76.3368
1.20767e+08,-75.3113
1.2081e+08,-74.4971
1.20854e+08,-75.3491
1.20897e+08,-76.2514
1.2094e+08,-75.3871
1.20984e+08,-75.9808
1.21027e+08,-75.0124
1.2107e+08,-75.899
1.21114e+08,-77.3058
1.21157e+08,-75.5021
1.212e+08,-74.6179
1.21244e+08,-75.3863
1.21287e+08,-76.0006
1.2133e+08,-74.9751
1.21374e+08,-76.5952
1.21417e+08,-76.5294
1.2146e+08,-75.8778
1.21504e+08,-76.1033
1.21547e+08,-76.3135
1.21591e+08,-75.3283
1.21634e+08,-74.5298
1.21677e+08,-74.9743
1.21721e+08,-75.7366
1.21764e+08,-74.426
1.21807e+08,-75.5589
1.21851e+08,-74.4946
1.21894e+08,-74.3405
1.21937e+08,-74.811
1.21981e+08,-74.8109
1.22024e+08,-74.9552
1.22067e+08,-71.799
1.22111e+08,-73.7656
1.22154e+08,-73.9907
1.22197e+08,-73.9257
1.22241e+08,-72.847
1.22284e+08,-72.0555
1.22327e+08,-73.8609
1.22371e+08,-73.6076
1.22414e+08,-72.9183
1.22457e+08,-73.4836
1.22501e+08,-73.0049
1.22544e+08,-71.61
1.22588e+08,-72.8748
1.22631e+08,-73.2257
1.22674e+08,-71.6097
1.22718e+08,-72.3462
1.22761e+08,-72.662
1.22804e+08,-72.8456
1.22848e+08,-72.0672
1.22891e+08,-71.572
1.22934e+08,-71.9245
1.22978e+08,-72.9169
1.23021e+08,-72.1719
1.23064e+08,-73.106
1.23108e+08,-71.1266
1.23151e+08,-72.2513
1.23194e+08,-73.0033
1.23238e+08,-71.7205
1.23281e+08,-71.5958
1.23324e+08,-71.5587
1.23368e+08,-70.1303
1.23411e+08,-70.647
1.23454e+08,-72.2372
1.23498e+08,-72.6323
1.23541e+08,-72.0917
1.23585e+08,-71.7323
1.23628e+08,-71.9485
1.23671e+08,-73.45
1.23715e+08,-71.0784
1.23758e+08,-72.1701
1.23801e+08,-72.5345
1.23845e+08,-72.6314
1.23888e+08,-71.82
1.23931e+08,-72.8287
1.23975e+08,-72.4518
1.24018e+08,-72.1299
1.24061e+08,-73.045
1.24105e+08,-72.8568
1.24148e+08,-72.6726
1.24191e+08,-72.0118
1.24235e+08,-73.0153
1.24278e+08,-73.1919
1.24321e+08,-73.6342
1.24365e+08,-73.2814
1.24408e+08,-73.1323
1.24451e+08,-73.4481
1.24495e+08,-73.1469
1.24538e+08,-73.3868
1.24582e+08,-73.6492
1.24625e+08,-72.6715
1.24668e+08,-72.8698
1.24712e+08,-73.2806
1.24755e+08,-72.9415
1.24798e+08,-73.9033
1.24842e+08,-62.1994
1.24885e+08,-74.2994
1.24928e+08,-74.0331
1.24972e+08,-73.5392
1.25015e+08,-72.2869
1.25058e+08,-69.7379
1.25102e+08,-73.8062
1.25145e+08,-74.0326
1.25188e+08,-75.0945
1.25232e+08,-73.8539
1.25275e+08,-74.9474
1.25318e+08,-74.0321
1.25362e+08,-73.7896
1.25405e+08,-73.7895
1.25448e+08,-74.4001
1.25492e+08,-74.4
1.25535e+08,-74.0316
1.25579e+08,-74.2978
1.25622e+08,-74.2303
1.25665e+08,-74.9464
1.25709e+08,-76.0311
1.25752e+08,-75.7468
1.25795e+08,-76.2608
1.25839e+08,-76.1345
1.25882e+08,-74.677
1.25925e+08,-75.0374
1.25969e+08,-76.0098
1.26012e+08,-73.5367
1.26055e+08,-75.8465
1.26099e+08,-74.8729
1.26142e+08,-76.6058
1.26185e+08,-75.7658
1.26229e+08,-74.7471
1.26272e+08,-74.1122
1.26315e+08,-75.4125
1.26359e+08,-75.5675
1.26402e+08,-75.0178
1.26445e+08,-75.7452
1.26489e+08,-74.7465
1.26532e+08,-76.942
1.26576e+08,-75.805
1.26619e+08,-75.5278
1.26662e+08,-74.6575
1.26706e+08,-76.2164
1.26749e+08,-73.9147
1.26792e+08,-76.1114
1.26836e+08,-74.7992
1.26879e+08,-75.7842
1.26922e+08,-75.764
1.26966e+08,-75.9459
1.27009e+08,-76.5159
1.27052e+08,-75.2206
1.27096e+08,-75.4106
1.27139e+08,-75.8237
1.27182e+08,-75.9046
1.27226e+08,-74.9427
1.27269e+08,-76.849
1.27312e+08,-76.131
1.27356e+08,-61.0472
1.27399e+08,-75.3907
1.27442e+08,-74.9787
1.27486e+08,-75.5063
1.27529e+08,-75.6433
1.27573e+08,-75.8631
1.27616e+08,-75.5841
1.27659e+08,-75.1443
1.27703e+08,-74.708
1.27746e+08,-74.6902
1.27789e+08,-74.1085
1.27833e+08,-74.8327
1.27876e+08,-74.026
1.27919e+08,-74.3941
1.27963e+08,-74.7965
1.28006e+08,-74.7428
1.28049e+08,-72.6074
1.28093e+08,-72.8044
1.28136e+08,-74.654
1.28179e+08,-74.3764
1.28223e+08,-74.4448
1.28266e+08,-74.7244
1.28309e+08,-74.1404
1.28353e+08,-74.0412
1.28396e+08,-73.5776
1.28439e+08,-73.7504
1.28483e+08,-74.8671
1.28526e+08,-74.3076
1.2857e+08,-72.8175
1.28613e+08,-74.4267
1.28656e+08,-75.198
1.287e+08,-74.9028
1.28743e+08,-74.1394
1.28786e+08,-74.3579
1.2883e+08,-74.6171
1.28873e+08,-74.495
1.28916e+08,-74.3747
1.2896e+08,-74.5121
1.29003e+08,-75.6992
1.29046e+08,-74.2726
1.2909e+08,-74.1885
1.29133e+08,-75.8189
1.29176e+08,-75.6196
1.2922e+08,-75.7785
1.29263e+08,-75.0293
1.29306e+08,-75.1217
1.2935e+08,-75.3096
1.29393e+08,-74.865
1.29436e+08,-74.3054
1.2948e+08,-75.3284
1.29523e+08,-75.8787
1.29567e+08,-74.356
1.2961e+08,-75.3662
1.29653e+08,-75.1956
1.29697e+08,-73.2987
1.2974e+08,-75.6577
1.29783e+08,-74.864
1.29827e+08,-74.8459
1.2987e+08,-75.9799
1.29913e+08,-74.1865
1.29957e+08,-74.6849
1.3e+08,-74.372
