FileType,0
Number of Points,3000
Sweep Time,3e+08
Start Frequency,0
Stop Frequency,1.3e+08
Average Count,1
Average Type,0
RBW,10000
RBW Filter,0
RBW Filter BW,0
VBW,10000
Sweep Type,0
X Axis Scale,1
PreAmp State,0
Trigger Source,0
Trigger Level,-25
Trigger Edge,0
Trigger Delay Switch,0
Trigger Delay,1
Attenuation,20
Ref Level Offset,0
External Gain,0
Trace Type,0
Detector,0
Trace Math,5
Trace Math Oper1,4
Trace Math Oper2,5
Trace Math Offset,0
Trace Name,0
Full Span,1.3e+08
Y Axis Unit,0
DATA,
0,-13.3791
43347.8,-63.5792
86695.6,-42.152
130043,-43.8112
173391,-49.8334
216739,-48.4124
260087,-49.3519
303434,-49.9879
346782,-52.6884
390130,-55.1287
433478,-57.7713
476826,-61.2496
520173,-53.7142
563521,-55.1614
606869,-53.1018
650217,-43.1225
693565,-44.5005
736912,-43.6047
780260,-42.5466
823608,-45.6704
866956,-45.96
910303,-35.6899
953651,-37.7792
996999,-42.0882
1.04035e+06,-39.1466
1.08369e+06,-40.9397
1.12704e+06,-44.4873
1.17039e+06,-34.1994
1.21374e+06,-44.1408
1.25709e+06,-44.822
1.30043e+06,-42.9131
1.34378e+06,-43.4175
1.38713e+06,-39.4408
1.43048e+06,-42.0222
1.47382e+06,-44.1451
1.51717e+06,-42.2089
1.56052e+06,-43.745
1.60387e+06,-45.7492
1.64722e+06,-43.7178
1.69056e+06,-41.7573
1.73391e+06,-41.9102
1.77726e+06,-42.7831
1.82061e+06,-39.3155
1.86395e+06,-41.0381
1.9073e+06,-40.3784
1.95065e+06,-41.8554
1.994e+06,-39.7895
2.03735e+06,-41.0566
2.08069e+06,-39.1069
2.12404e+06,-38.6071
2.16739e+06,-35.5431
2.21074e+06,-38.7924
2.25408e+06,-39.4187
2.29743e+06,-38.1711
2.34078e+06,-39.254
2.38413e+06,-36.3664
2.42748e+06,-35.3323
2.47082e+06,-34.7912
2.51417e+06,-36.5217
2.55752e+06,-35.8719
2.60087e+06,-34.3934
2.64421e+06,-34.3518
2.68756e+06,-36.4402
2.73091e+06,-36.3751
2.77426e+06,-34.3374
2.81761e+06,-34.7775
2.86095e+06,-35.5219
2.9043e+06,-35.879
2.94765e+06,-35.3252
2.991e+06,-33.8689
3.03434e+06,-35.6996
3.07769e+06,-34.3595
3.12104e+06,-31.3707
3.16439e+06,-33.4936
3.20774e+06,-33.035
3.25108e+06,-33.1155
3.29443e+06,-32.1561
3.33778e+06,-33.6325
3.38113e+06,-33.5155
3.42447e+06,-32.3703
3.46782e+06,-32.178
3.51117e+06,-32.8774
3.55452e+06,-34.9471
3.59787e+06,-32.3451
3.64121e+06,-33.4358
3.68456e+06,-35.3754
3.72791e+06,-31.7788
3.77126e+06,-34.2075
3.8146e+06,-34.0598
3.85795e+06,-32.3315
3.9013e+06,-31.8714
3.94465e+06,-34.4197
3.988e+06,-32.9802
4.03134e+06,-33.1395
4.07469e+06,-33.8765
4.11804e+06,-34.9122
4.16139e+06,-34.8382
4.20473e+06,-34.0989
4.24808e+06,-33.326
4.29143e+06,-36.2837
4.33478e+06,-37.0683
4.37813e+06,-38.3793
4.42147e+06,-40.1618
4.46482e+06,-42.663
4.50817e+06,-47.6656
4.55152e+06,-48.7863
4.59486e+06,-50.2631
4.63821e+06,-52.0459
4.68156e+06,-49.0006
4.72491e+06,-52.9617
4.76826e+06,-50.5055
4.8116e+06,-49.4299
4.85495e+06,-50.2252
4.8983e+06,-48.57
4.94165e+06,-49.7407
4.98499e+06,-47.3609
5.02834e+06,-48.7358
5.07169e+06,-47.4863
5.11504e+06,-49.6423
5.15839e+06,-46.4782
5.20173e+06,-50.5273
5.24508e+06,-50.5314
5.28843e+06,-50.7002
5.33178e+06,-48.4146
5.37513e+06,-45.4171
5.41847e+06,-44.481
5.46182e+06,-48.5465
5.50517e+06,-50.3035
5.54852e+06,-47.0925
5.59186e+06,-46.8929
5.63521e+06,-46.1266
5.67856e+06,-47.3927
5.72191e+06,-47.0334
5.76526e+06,-48.7564
5.8086e+06,-48.3455
5.85195e+06,-46.8538
5.8953e+06,-45.2538
5.93865e+06,-47.1044
5.98199e+06,-45.2193
6.02534e+06,-49.9829
6.06869e+06,-47.5225
6.11204e+06,-48.9783
6.15539e+06,-49.1175
6.19873e+06,-43.0261
6.24208e+06,-46.8053
6.28543e+06,-47.777
6.32878e+06,-45.1506
6.37212e+06,-47.4976
6.41547e+06,-45.4169
6.45882e+06,-48.5745
6.50217e+06,-47.4859
6.54552e+06,-50.4687
6.58886e+06,-43.9406
6.63221e+06,-45.1031
6.67556e+06,-45.2019
6.71891e+06,-44.7268
6.76225e+06,-46.4417
6.8056e+06,-46.2588
6.84895e+06,-46.4952
6.8923e+06,-46.245
6.93565e+06,-46.8097
6.97899e+06,-48.2071
7.02234e+06,-44.921
7.06569e+06,-48.8232
7.10904e+06,-48.5379
7.15238e+06,-47.8865
7.19573e+06,-47.6504
7.23908e+06,-46.9096
7.28243e+06,-45.6779
7.32578e+06,-44.7176
7.36912e+06,-46.6733
7.41247e+06,-45.3896
7.45582e+06,-46.1353
7.49917e+06,-46.2666
7.54251e+06,-46.8864
7.58586e+06,-44.6093
7.62921e+06,-44.9857
7.67256e+06,-47.6337
7.71591e+06,-45.2659
7.75925e+06,-44.3649
7.8026e+06,-43.2894
7.84595e+06,-44.2284
7.8893e+06,-45.5061
7.93264e+06,-46.2911
7.97599e+06,-45.3686
8.01934e+06,-46.8683
8.06269e+06,-45.7296
8.10604e+06,-47.1914
8.14938e+06,-44.0967
8.19273e+06,-44.6956
8.23608e+06,-45.6895
8.27943e+06,-45.7422
8.32277e+06,-45.3783
8.36612e+06,-46.3609
8.40947e+06,-46.5073
8.45282e+06,-46.0289
8.49617e+06,-45.9177
8.53951e+06,-46.4521
8.58286e+06,-47.027
8.62621e+06,-44.1165
8.66956e+06,-43.0281
8.7129e+06,-44.5872
8.75625e+06,-45.9957
8.7996e+06,-46.6219
8.84295e+06,-46.1903
8.8863e+06,-45.7815
8.92964e+06,-46.3086
8.97299e+06,-43.8813
9.01634e+06,-46.754
9.05969e+06,-44.8619
9.10303e+06,-45.5931
9.14638e+06,-45.3705
9.18973e+06,-45.7082
9.23308e+06,-45.0063
9.27643e+06,-44.7318
9.31977e+06,-45.377
9.36312e+06,-42.2209
9.40647e+06,-43.6309
9.44982e+06,-34.6747
9.49316e+06,-46.0251
9.53651e+06,-27.3891
9.57986e+06,-42.5141
9.62321e+06,-44.8696
9.66656e+06,-45.4752
9.7099e+06,-45.848
9.75325e+06,-45.1154
9.7966e+06,-44.9003
9.83995e+06,-47.2982
9.88329e+06,-45.5967
9.92664e+06,-45.3189
9.96999e+06,-36.8022
1.00133e+07,-45.775
1.00567e+07,-46.1844
1.01e+07,-43.2962
1.01434e+07,-46.5347
1.01867e+07,-41.8861
1.02301e+07,-45.663
1.02734e+07,-45.4701
1.03168e+07,-45.1014
1.03601e+07,-44.6041
1.04035e+07,-45.766
1.04468e+07,-47.5642
1.04902e+07,-46.7354
1.05335e+07,-46.86
1.05769e+07,-43.7115
1.06202e+07,-45.4457
1.06636e+07,-44.4736
1.07069e+07,-45.7836
1.07503e+07,-47.2834
1.07936e+07,-44.0547
1.08369e+07,-45.9317
1.08803e+07,-44.7962
1.09236e+07,-45.041
1.0967e+07,-45.903
1.10103e+07,-45.8025
1.10537e+07,-45.3326
1.1097e+07,-45.6096
1.11404e+07,-44.9164
1.11837e+07,-46.0501
1.12271e+07,-46.9054
1.12704e+07,-45.3703
1.13138e+07,-45.0957
1.13571e+07,-46.6746
1.14005e+07,-48.434
1.14438e+07,-46.4948
1.14872e+07,-45.8142
1.15305e+07,-48.2692
1.15739e+07,-46.9527
1.16172e+07,-48.1309
1.16606e+07,-45.597
1.17039e+07,-46.776
1.17472e+07,-46.5207
1.17906e+07,-47.0572
1.18339e+07,-28.2778
1.18773e+07,-43.7873
1.19206e+07,-39.0954
1.1964e+07,-48.0467
1.20073e+07,-45.8193
1.20507e+07,-44.5948
1.2094e+07,-48.5451
1.21374e+07,-48.3904
1.21807e+07,-47.19
1.22241e+07,-48.683
1.22674e+07,-46.2196
1.23108e+07,-49.7245
1.23541e+07,-49.093
1.23975e+07,-47.7441
1.24408e+07,-48.9816
1.24842e+07,-45.1413
1.25275e+07,-44.3092
1.25709e+07,-48.4318
1.26142e+07,-48.2425
1.26576e+07,-48.4678
1.27009e+07,-46.6573
1.27442e+07,-46.284
1.27876e+07,-46.0334
1.28309e+07,-45.8942
1.28743e+07,-48.0046
1.29176e+07,-48.7932
1.2961e+07,-45.4104
1.30043e+07,-48.3906
1.30477e+07,-46.3414
1.3091e+07,-44.7145
1.31344e+07,-46.547
1.31777e+07,-45.0749
1.32211e+07,-45.2594
1.32644e+07,-46.3408
1.33078e+07,-45.4707
1.33511e+07,-45.3703
1.33945e+07,-45.2115
1.34378e+07,-45.0572
1.34812e+07,-43.6846
1.35245e+07,-30.1152
1.35679e+07,-45.0554
1.36112e+07,-46.0189
1.36546e+07,-47.167
1.36979e+07,-46.803
1.37412e+07,-48.9131
1.37846e+07,-46.2281
1.38279e+07,-21.5806
1.38713e+07,-46.0785
1.39146e+07,-46.2919
1.3958e+07,-44.5585
1.40013e+07,-46.1635
1.40447e+07,-42.4326
1.4088e+07,-42.9994
1.41314e+07,-46.8772
1.41747e+07,-46.6635
1.42181e+07,-46.4668
1.42614e+07,-46.4857
1.43048e+07,-45.0733
1.43481e+07,-47.3113
1.43915e+07,-45.1095
1.44348e+07,-44.1777
1.44782e+07,-47.246
1.45215e+07,-46.6218
1.45649e+07,-48.1834
1.46082e+07,-46.7658
1.46516e+07,-47.3162
1.46949e+07,-48.2978
1.47382e+07,-47.0813
1.47816e+07,-45.8239
1.48249e+07,-45.8841
1.48683e+07,-47.9922
1.49116e+07,-45.6326
1.4955e+07,-45.627
1.49983e+07,-39.937
1.50417e+07,-46.133
1.5085e+07,-45.1023
1.51284e+07,-46.3158
1.51717e+07,-46.2825
1.52151e+07,-44.0896
1.52584e+07,-46.7139
1.53018e+07,-45.8463
1.53451e+07,-45.316
1.53885e+07,-46.1407
1.54318e+07,-46.6621
1.54752e+07,-45.5346
1.55185e+07,-43.297
1.55619e+07,-40.6104
1.56052e+07,-36.1083
1.56485e+07,-46.7206
1.56919e+07,-31.1909
1.57352e+07,-29.2686
1.57786e+07,-43.279
1.58219e+07,-40.6478
1.58653e+07,-44.0344
1.59086e+07,-42.5611
1.5952e+07,-43.0471
1.59953e+07,-44.5825
1.60387e+07,-44.2327
1.6082e+07,-42.3098
1.61254e+07,-43.6627
1.61687e+07,-45.0818
1.62121e+07,-42.7881
1.62554e+07,-43.3658
1.62988e+07,-43.196
1.63421e+07,-44.805
1.63855e+07,-41.7737
1.64288e+07,-42.2654
1.64722e+07,-43.6287
1.65155e+07,-42.1846
1.65589e+07,-43.1905
1.66022e+07,-40.9772
1.66455e+07,-42.9771
1.66889e+07,-42.2266
1.67322e+07,-41.523
1.67756e+07,-42.6633
1.68189e+07,-45.1627
1.68623e+07,-42.3007
1.69056e+07,-42.0772
1.6949e+07,-42.7525
1.69923e+07,-42.0297
1.70357e+07,-42.1862
1.7079e+07,-42.8805
1.71224e+07,-42.1829
1.71657e+07,-41.368
1.72091e+07,-42.1804
1.72524e+07,-42.6016
1.72958e+07,-44.0497
1.73391e+07,-45.049
1.73825e+07,-44.7655
1.74258e+07,-44.02
1.74692e+07,-44.099
1.75125e+07,-37.3569
1.75559e+07,-44.1354
1.75992e+07,-43.1953
1.76425e+07,-43.3296
1.76859e+07,-44.5829
1.77292e+07,-43.4131
1.77726e+07,-41.4409
1.78159e+07,-38.3557
1.78593e+07,-41.6741
1.79026e+07,-42.1581
1.7946e+07,-42.6191
1.79893e+07,-41.9678
1.80327e+07,-40.6142
1.8076e+07,-42.3039
1.81194e+07,-39.5482
1.81627e+07,-40.7411
1.82061e+07,-39.0119
1.82494e+07,-40.0998
1.82928e+07,-40.8764
1.83361e+07,-38.8996
1.83795e+07,-41.4335
1.84228e+07,-41.2106
1.84662e+07,-41.5839
1.85095e+07,-42.2074
1.85529e+07,-42.7072
1.85962e+07,-41.2223
1.86395e+07,-40.6607
1.86829e+07,-42.393
1.87262e+07,-42.0777
1.87696e+07,-41.9202
1.88129e+07,-41.1691
1.88563e+07,-40.432
1.88996e+07,-42.2905
1.8943e+07,-41.6663
1.89863e+07,-40.9288
1.90297e+07,-40.3442
1.9073e+07,-38.0604
1.91164e+07,-40.5448
1.91597e+07,-39.9915
1.92031e+07,-40.8208
1.92464e+07,-42.0554
1.92898e+07,-42.0851
1.93331e+07,-41.8181
1.93765e+07,-41.3586
1.94198e+07,-39.9618
1.94632e+07,-41.8683
1.95065e+07,-39.5844
1.95498e+07,-39.5995
1.95932e+07,-41.8384
1.96365e+07,-40.6126
1.96799e+07,-42.1428
1.97232e+07,-39.4827
1.97666e+07,-40.6299
1.98099e+07,-41.0064
1.98533e+07,-41.7134
1.98966e+07,-39.5332
1.994e+07,-32.7969
1.99833e+07,-33.5755
2.00267e+07,-40.5611
2.007e+07,-39.5624
2.01134e+07,-41.3937
2.01567e+07,-41.182
2.02001e+07,-40.0241
2.02434e+07,-41.2476
2.02868e+07,-40.908
2.03301e+07,-40.431
2.03735e+07,-39.1931
2.04168e+07,-39.287
2.04602e+07,-40.3889
2.05035e+07,-39.8371
2.05468e+07,-38.9463
2.05902e+07,-40.9994
2.06335e+07,-41.04
2.06769e+07,-40.1295
2.07202e+07,-41.1053
2.07636e+07,-40.6724
2.08069e+07,-37.44
2.08503e+07,-40.5256
2.08936e+07,-41.2971
2.0937e+07,-37.3251
2.09803e+07,-39.1183
2.10237e+07,-41.2608
2.1067e+07,-38.5615
2.11104e+07,-40.0192
2.11537e+07,-38.0642
2.11971e+07,-41.9015
2.12404e+07,-41.8794
2.12838e+07,-41.6927
2.13271e+07,-40.9278
2.13705e+07,-42.0508
2.14138e+07,-39.5318
2.14572e+07,-36.1091
2.15005e+07,-38.5985
2.15438e+07,-41.6231
2.15872e+07,-39.4652
2.16305e+07,-41.7499
2.16739e+07,-37.6312
2.17172e+07,-41.8914
2.17606e+07,-40.2363
2.18039e+07,-38.7483
2.18473e+07,-40.3314
2.18906e+07,-38.5732
2.1934e+07,-40.414
2.19773e+07,-40.3106
2.20207e+07,-41.2028
2.2064e+07,-41.6509
2.21074e+07,-39.4152
2.21507e+07,-41.0122
2.21941e+07,-40.0632
2.22374e+07,-39.0503
2.22808e+07,-39.2101
2.23241e+07,-40.7009
2.23675e+07,-41.2673
2.24108e+07,-39.2497
2.24542e+07,-40.9342
2.24975e+07,-39.7438
2.25408e+07,-40.9557
2.25842e+07,-40.1945
2.26275e+07,-40.0759
2.26709e+07,-37.263
2.27142e+07,-41.192
2.27576e+07,-41.038
2.28009e+07,-41.6217
2.28443e+07,-41.4417
2.28876e+07,-39.6063
2.2931e+07,-40.6093
2.29743e+07,-40.5193
2.30177e+07,-39.4331
2.3061e+07,-41.1875
2.31044e+07,-40.0685
2.31477e+07,-40.9906
2.31911e+07,-40.8068
2.32344e+07,-40.6211
2.32778e+07,-39.7554
2.33211e+07,-40.4557
2.33645e+07,-42.0692
2.34078e+07,-41.0481
2.34512e+07,-42.7056
2.34945e+07,-41.3778
2.35378e+07,-40.6717
2.35812e+07,-38.5522
2.36245e+07,-41.4542
2.36679e+07,-41.7283
2.37112e+07,-40.086
2.37546e+07,-42.012
2.37979e+07,-38.9259
2.38413e+07,-39.9836
2.38846e+07,-41.804
2.3928e+07,-42.2271
2.39713e+07,-41.2473
2.40147e+07,-39.9396
2.4058e+07,-39.6608
2.41014e+07,-39.6361
2.41447e+07,-38.9568
2.41881e+07,-41.1068
2.42314e+07,-39.4332
2.42748e+07,-40.1936
2.43181e+07,-40.9973
2.43615e+07,-38.5308
2.44048e+07,-41.9206
2.44481e+07,-40.7101
2.44915e+07,-38.9948
2.45348e+07,-43.5506
2.45782e+07,-39.9677
2.46215e+07,-42.6812
2.46649e+07,-43.1529
2.47082e+07,-42.3211
2.47516e+07,-43.7438
2.47949e+07,-42.0757
2.48383e+07,-42.6589
2.48816e+07,-43.1204
2.4925e+07,-42.0034
2.49683e+07,-41.7205
2.50117e+07,-41.6035
2.5055e+07,-43.2116
2.50984e+07,-42.8714
2.51417e+07,-41.896
2.51851e+07,-40.8163
2.52284e+07,-39.7757
2.52718e+07,-42.6044
2.53151e+07,-41.6168
2.53585e+07,-41.7103
2.54018e+07,-43.1009
2.54451e+07,-39.5677
2.54885e+07,-42.6369
2.55318e+07,-40.0887
2.55752e+07,-42.4588
2.56185e+07,-43.6841
2.56619e+07,-45.9065
2.57052e+07,-46.3479
2.57486e+07,-44.696
2.57919e+07,-44.2433
2.58353e+07,-45.6444
2.58786e+07,-45.7232
2.5922e+07,-45.75
2.59653e+07,-45.5084
2.60087e+07,-46.499
2.6052e+07,-47.695
2.60954e+07,-48.7867
2.61387e+07,-46.8283
2.61821e+07,-47.2709
2.62254e+07,-49.1833
2.62688e+07,-46.2799
2.63121e+07,-50.7886
2.63555e+07,-50.0279
2.63988e+07,-47.1298
2.64421e+07,-47.8872
2.64855e+07,-48.3733
2.65288e+07,-47.9466
2.65722e+07,-46.3088
2.66155e+07,-46.8314
2.66589e+07,-46.9527
2.67022e+07,-47.1008
2.67456e+07,-46.4219
2.67889e+07,-43.532
2.68323e+07,-46.4667
2.68756e+07,-46.2117
2.6919e+07,-45.8864
2.69623e+07,-45.4266
2.70057e+07,-45.6028
2.7049e+07,-44.8092
2.70924e+07,-45.4557
2.71357e+07,-44.9045
2.71791e+07,-43.4283
2.72224e+07,-44.0948
2.72658e+07,-43.537
2.73091e+07,-42.8416
2.73525e+07,-43.4174
2.73958e+07,-41.5604
2.74391e+07,-40.3451
2.74825e+07,-43.661
2.75258e+07,-47.8481
2.75692e+07,-41.3946
2.76125e+07,-40.3058
2.76559e+07,-43.3915
2.76992e+07,-44.5189
2.77426e+07,-41.9425
2.77859e+07,-43.5937
2.78293e+07,-41.5185
2.78726e+07,-43.1768
2.7916e+07,-43.9532
2.79593e+07,-42.918
2.80027e+07,-44.3233
2.8046e+07,-43.6296
2.80894e+07,-41.6266
2.81327e+07,-43.2229
2.81761e+07,-43.5827
2.82194e+07,-47.7472
2.82628e+07,-43.5206
2.83061e+07,-42.094
2.83494e+07,-43.2244
2.83928e+07,-42.955
2.84361e+07,-42.7343
2.84795e+07,-41.4081
2.85228e+07,-41.3631
2.85662e+07,-41.6379
2.86095e+07,-40.0551
2.86529e+07,-39.9833
2.86962e+07,-41.6309
2.87396e+07,-42.1251
2.87829e+07,-46.2287
2.88263e+07,-43.0859
2.88696e+07,-42.7692
2.8913e+07,-43.163
2.89563e+07,-41.6441
2.89997e+07,-39.7773
2.9043e+07,-39.7599
2.90864e+07,-41.2432
2.91297e+07,-41.4169
2.91731e+07,-41.1822
2.92164e+07,-38.5968
2.92598e+07,-41.0706
2.93031e+07,-42.6601
2.93464e+07,-40.8434
2.93898e+07,-43.6253
2.94331e+07,-43.1253
2.94765e+07,-40.8733
2.95198e+07,-42.0679
2.95632e+07,-41.4665
2.96065e+07,-40.4195
2.96499e+07,-41.1775
2.96932e+07,-40.3891
2.97366e+07,-41.5785
2.97799e+07,-40.3084
2.98233e+07,-41.1805
2.98666e+07,-41.7643
2.991e+07,-39.5082
2.99533e+07,-41.5793
2.99967e+07,-39.8454
3.004e+07,-39.9036
3.00834e+07,-39.9779
3.01267e+07,-40.5656
3.01701e+07,-39.9794
3.02134e+07,-41.9238
3.02568e+07,-40.6237
3.03001e+07,-38.9294
3.03434e+07,-40.7919
3.03868e+07,-40.8809
3.04301e+07,-42.1384
3.04735e+07,-46.9728
3.05168e+07,-43.3598
3.05602e+07,-41.8875
3.06035e+07,-43.699
3.06469e+07,-40.1872
3.06902e+07,-44.5236
3.07336e+07,-41.4436
3.07769e+07,-46.102
3.08203e+07,-43.1781
3.08636e+07,-43.6768
3.0907e+07,-42.4565
3.09503e+07,-42.1917
3.09937e+07,-42.4809
3.1037e+07,-40.4971
3.10804e+07,-44.4765
3.11237e+07,-42.8257
3.11671e+07,-41.0584
3.12104e+07,-43.0265
3.12538e+07,-43.6933
3.12971e+07,-43.4686
3.13404e+07,-42.3138
3.13838e+07,-43.0246
3.14271e+07,-38.7343
3.14705e+07,-43.5618
3.15138e+07,-40.8314
3.15572e+07,-41.3633
3.16005e+07,-40.657
3.16439e+07,-41.3153
3.16872e+07,-42.0963
3.17306e+07,-43.9052
3.17739e+07,-40.8218
3.18173e+07,-39.8822
3.18606e+07,-40.5206
3.1904e+07,-40.8919
3.19473e+07,-41.6839
3.19907e+07,-43.4331
3.2034e+07,-40.7547
3.20774e+07,-44.5832
3.21207e+07,-42.2148
3.21641e+07,-39.0733
3.22074e+07,-43.4658
3.22508e+07,-40.0429
3.22941e+07,-43.7908
3.23374e+07,-42.8012
3.23808e+07,-41.6372
3.24241e+07,-41.2436
3.24675e+07,-43.0841
3.25108e+07,-44.7677
3.25542e+07,-40.497
3.25975e+07,-43.2985
3.26409e+07,-44.3755
3.26842e+07,-42.1522
3.27276e+07,-41.015
3.27709e+07,-41.3515
3.28143e+07,-45.3673
3.28576e+07,-41.9329
3.2901e+07,-41.8744
3.29443e+07,-43.8145
3.29877e+07,-43.4766
3.3031e+07,-42.6768
3.30744e+07,-41.3972
3.31177e+07,-41.1792
3.31611e+07,-44.4542
3.32044e+07,-44.3505
3.32477e+07,-43.8661
3.32911e+07,-40.6356
3.33344e+07,-38.09
3.33778e+07,-44.341
3.34211e+07,-44.3288
3.34645e+07,-46.0604
3.35078e+07,-40.1734
3.35512e+07,-43.5706
3.35945e+07,-44.7671
3.36379e+07,-41.3447
3.36812e+07,-43.4158
3.37246e+07,-42.8247
3.37679e+07,-43.0425
3.38113e+07,-42.4957
3.38546e+07,-43.5342
3.3898e+07,-42.617
3.39413e+07,-41.185
3.39847e+07,-42.7157
3.4028e+07,-42.0273
3.40714e+07,-41.1505
3.41147e+07,-43.7063
3.41581e+07,-42.1802
3.42014e+07,-44.1756
3.42447e+07,-42.1263
3.42881e+07,-44.4074
3.43314e+07,-46.7836
3.43748e+07,-42.5288
3.44181e+07,-42.0825
3.44615e+07,-45.6455
3.45048e+07,-45.5356
3.45482e+07,-41.4786
3.45915e+07,-43.89
3.46349e+07,-45.1118
3.46782e+07,-43.9299
3.47216e+07,-45.664
3.47649e+07,-47.8675
3.48083e+07,-43.1528
3.48516e+07,-43.1381
3.4895e+07,-41.2223
3.49383e+07,-43.6342
3.49817e+07,-46.8451
3.5025e+07,-43.0876
3.50684e+07,-43.8083
3.51117e+07,-47.4567
3.51551e+07,-48.584
3.51984e+07,-48.001
3.52417e+07,-42.1118
3.52851e+07,-45.7004
3.53284e+07,-43.2891
3.53718e+07,-43.5202
3.54151e+07,-45.9938
3.54585e+07,-45.8969
3.55018e+07,-47.3868
3.55452e+07,-45.7338
3.55885e+07,-44.4322
3.56319e+07,-47.5981
3.56752e+07,-47.4107
3.57186e+07,-46.6768
3.57619e+07,-47.2972
3.58053e+07,-47.5557
3.58486e+07,-46.4038
3.5892e+07,-46.0016
3.59353e+07,-44.3402
3.59787e+07,-43.2766
3.6022e+07,-44.7026
3.60654e+07,-45.3427
3.61087e+07,-43.0363
3.61521e+07,-44.3221
3.61954e+07,-45.034
3.62387e+07,-41.7632
3.62821e+07,-43.2143
3.63254e+07,-44.0879
3.63688e+07,-42.9955
3.64121e+07,-43.6864
3.64555e+07,-42.3988
3.64988e+07,-42.9561
3.65422e+07,-43.6034
3.65855e+07,-43.6374
3.66289e+07,-43.8961
3.66722e+07,-44.6233
3.67156e+07,-42.7397
3.67589e+07,-44.6738
3.68023e+07,-45.1665
3.68456e+07,-41.4007
3.6889e+07,-44.1134
3.69323e+07,-44.9407
3.69757e+07,-45.8852
3.7019e+07,-43.7022
3.70624e+07,-44.8312
3.71057e+07,-45.9776
3.7149e+07,-49.4352
3.71924e+07,-48.1254
3.72357e+07,-47.1333
3.72791e+07,-48.2652
3.73224e+07,-46.7971
3.73658e+07,-47.1857
3.74091e+07,-48.5308
3.74525e+07,-46.823
3.74958e+07,-45.8242
3.75392e+07,-45.5493
3.75825e+07,-46.2419
3.76259e+07,-45.7619
3.76692e+07,-46.4471
3.77126e+07,-46.1405
3.77559e+07,-46.0942
3.77993e+07,-48.1297
3.78426e+07,-45.914
3.7886e+07,-45.7383
3.79293e+07,-45.1171
3.79727e+07,-44.6912
3.8016e+07,-44.451
3.80594e+07,-44.6393
3.81027e+07,-45.4126
3.8146e+07,-45.0616
3.81894e+07,-46.8713
3.82327e+07,-45.7518
3.82761e+07,-46.9427
3.83194e+07,-46.0322
3.83628e+07,-46.232
3.84061e+07,-44.9888
3.84495e+07,-47.763
3.84928e+07,-45.4348
3.85362e+07,-47.8775
3.85795e+07,-47.117
3.86229e+07,-48.6898
3.86662e+07,-45.9405
3.87096e+07,-48.6104
3.87529e+07,-46.239
3.87963e+07,-52.4863
3.88396e+07,-46.4315
3.8883e+07,-49.0106
3.89263e+07,-47.4602
3.89697e+07,-48.3326
3.9013e+07,-47.4345
3.90564e+07,-47.5101
3.90997e+07,-48.285
3.9143e+07,-48.1063
3.91864e+07,-46.1842
3.92297e+07,-50.3176
3.92731e+07,-48.8083
3.93164e+07,-49.3768
3.93598e+07,-50.084
3.94031e+07,-50.7998
3.94465e+07,-49.1294
3.94898e+07,-51.0123
3.95332e+07,-49.6147
3.95765e+07,-52.9926
3.96199e+07,-49.6974
3.96632e+07,-52.8936
3.97066e+07,-49.9469
3.97499e+07,-53.1796
3.97933e+07,-50.6035
3.98366e+07,-50.8479
3.988e+07,-49.1388
3.99233e+07,-49.6528
3.99667e+07,-47.54
4.001e+07,-49.1483
4.00534e+07,-46.3549
4.00967e+07,-47.2758
4.014e+07,-45.9718
4.01834e+07,-47.0032
4.02267e+07,-48.2055
4.02701e+07,-45.4397
4.03134e+07,-45.4384
4.03568e+07,-46.0861
4.04001e+07,-46.1586
4.04435e+07,-48.4651
4.04868e+07,-46.0543
4.05302e+07,-45.9875
4.05735e+07,-47.7748
4.06169e+07,-46.813
4.06602e+07,-47.0743
4.07036e+07,-48.4414
4.07469e+07,-48.7968
4.07903e+07,-46.4465
4.08336e+07,-45.4235
4.0877e+07,-48.5821
4.09203e+07,-46.0082
4.09637e+07,-46.5263
4.1007e+07,-41.6253
4.10504e+07,-45.556
4.10937e+07,-46.3018
4.1137e+07,-45.8347
4.11804e+07,-46.3489
4.12237e+07,-45.7011
4.12671e+07,-45.0988
4.13104e+07,-46.6862
4.13538e+07,-46.4719
4.13971e+07,-44.6052
4.14405e+07,-45.0982
4.14838e+07,-45.216
4.15272e+07,-46.9884
4.15705e+07,-45.2099
4.16139e+07,-45.5143
4.16572e+07,-45.0365
4.17006e+07,-46.3503
4.17439e+07,-44.6875
4.17873e+07,-45.2654
4.18306e+07,-44.673
4.1874e+07,-44.9724
4.19173e+07,-44.4843
4.19607e+07,-45.5053
4.2004e+07,-44.5825
4.20473e+07,-44.4408
4.20907e+07,-45.4934
4.2134e+07,-46.4718
4.21774e+07,-46.5957
4.22207e+07,-46.0909
4.22641e+07,-45.7274
4.23074e+07,-46.3978
4.23508e+07,-45.5893
4.23941e+07,-46.4194
4.24375e+07,-45.4981
4.24808e+07,-46.3694
4.25242e+07,-46.3033
4.25675e+07,-45.4066
4.26109e+07,-45.987
4.26542e+07,-44.4838
4.26976e+07,-45.0851
4.27409e+07,-44.7804
4.27843e+07,-44.5383
4.28276e+07,-45.7334
4.2871e+07,-46.104
4.29143e+07,-46.5254
4.29577e+07,-46.4789
4.3001e+07,-46.4861
4.30443e+07,-46.5088
4.30877e+07,-46.4737
4.3131e+07,-44.6607
4.31744e+07,-43.326
4.32177e+07,-44.6485
4.32611e+07,-45.2858
4.33044e+07,-45.7004
4.33478e+07,-46.878
4.33911e+07,-46.5764
4.34345e+07,-43.7694
4.34778e+07,-45.2088
4.35212e+07,-45.6892
4.35645e+07,-48.1739
4.36079e+07,-46.6546
4.36512e+07,-44.3732
4.36946e+07,-46.5679
4.37379e+07,-46.7671
4.37813e+07,-47.9083
4.38246e+07,-48.2541
4.3868e+07,-46.139
4.39113e+07,-45.1553
4.39547e+07,-45.4099
4.3998e+07,-45.229
4.40413e+07,-45.0382
4.40847e+07,-44.595
4.4128e+07,-44.6403
4.41714e+07,-46.4097
4.42147e+07,-45.122
4.42581e+07,-45.1621
4.43014e+07,-47.0426
4.43448e+07,-46.5594
4.43881e+07,-48.7132
4.44315e+07,-50.9776
4.44748e+07,-50.3123
4.45182e+07,-50.4499
4.45615e+07,-49.4717
4.46049e+07,-50.6229
4.46482e+07,-48.3912
4.46916e+07,-50.2099
4.47349e+07,-50.5782
4.47783e+07,-51.084
4.48216e+07,-50.4764
4.4865e+07,-49.7682
4.49083e+07,-49.5208
4.49517e+07,-49.4524
4.4995e+07,-49.6539
4.50383e+07,-48.7387
4.50817e+07,-48.3914
4.5125e+07,-48.1521
4.51684e+07,-48.8671
4.52117e+07,-48.8917
4.52551e+07,-47.9514
4.52984e+07,-48.2422
4.53418e+07,-47.5124
4.53851e+07,-47.8403
4.54285e+07,-49.8519
4.54718e+07,-49.8191
4.55152e+07,-50.1433
4.55585e+07,-46.8274
4.56019e+07,-48.7934
4.56452e+07,-48.1494
4.56886e+07,-47.0871
4.57319e+07,-49.1734
4.57753e+07,-51.6663
4.58186e+07,-50.1044
4.5862e+07,-50.8074
4.59053e+07,-48.6628
4.59486e+07,-47.1948
4.5992e+07,-47.774
4.60353e+07,-50.4858
4.60787e+07,-49.3273
4.6122e+07,-50.1688
4.61654e+07,-49.139
4.62087e+07,-49.3185
4.62521e+07,-51.0094
4.62954e+07,-51.2176
4.63388e+07,-49.1722
4.63821e+07,-51.4342
4.64255e+07,-52.0696
4.64688e+07,-51.6394
4.65122e+07,-51.8186
4.65555e+07,-53.145
4.65989e+07,-51.7725
4.66422e+07,-52.0013
4.66856e+07,-52.4754
4.67289e+07,-51.3503
4.67723e+07,-51.4032
4.68156e+07,-51.1799
4.6859e+07,-51.8199
4.69023e+07,-51.3838
4.69456e+07,-51.2944
4.6989e+07,-52.3256
4.70323e+07,-52.3849
4.70757e+07,-53.4943
4.7119e+07,-52.7721
4.71624e+07,-52.7112
4.72057e+07,-51.0128
4.72491e+07,-51.5857
4.72924e+07,-51.6535
4.73358e+07,-51.4617
4.73791e+07,-51.1548
4.74225e+07,-49.6047
4.74658e+07,-50.9162
4.75092e+07,-50.1659
4.75525e+07,-49.4667
4.75959e+07,-51.2199
4.76392e+07,-51.8519
4.76826e+07,-52.3998
4.77259e+07,-51.414
4.77693e+07,-50.5169
4.78126e+07,-49.9188
4.7856e+07,-50.6166
4.78993e+07,-51.841
4.79426e+07,-50.7022
4.7986e+07,-50.9054
4.80293e+07,-50.1047
4.80727e+07,-49.9569
4.8116e+07,-48.6903
4.81594e+07,-48.8838
4.82027e+07,-51.2887
4.82461e+07,-51.2559
4.82894e+07,-50.4025
4.83328e+07,-50.0244
4.83761e+07,-50.5845
4.84195e+07,-50.7509
4.84628e+07,-50.4824
4.85062e+07,-51.3368
4.85495e+07,-50.0004
4.85929e+07,-51.9956
4.86362e+07,-50.7512
4.86796e+07,-51.6949
4.87229e+07,-55.2577
4.87663e+07,-55.1348
4.88096e+07,-55.6502
4.8853e+07,-53.2973
4.88963e+07,-56.9205
4.89396e+07,-54.6561
4.8983e+07,-54.8264
4.90263e+07,-53.3855
4.90697e+07,-55.7074
4.9113e+07,-54.2812
4.91564e+07,-56.1867
4.91997e+07,-53.6493
4.92431e+07,-55.8875
4.92864e+07,-53.4353
4.93298e+07,-56.799
4.93731e+07,-53.9882
4.94165e+07,-57.2769
4.94598e+07,-53.4632
4.95032e+07,-57.4817
4.95465e+07,-53.9764
4.95899e+07,-57.5822
4.96332e+07,-53.4821
4.96766e+07,-57.3767
4.97199e+07,-52.9349
4.97633e+07,-57.1991
4.98066e+07,-52.5408
4.98499e+07,-53.9722
4.98933e+07,-53.1998
4.99366e+07,-56.2458
4.998e+07,-53.3613
5.00233e+07,-57.3355
5.00667e+07,-52.5778
5.011e+07,-58.0209
5.01534e+07,-52.9802
5.01967e+07,-56.9787
5.02401e+07,-53.1478
5.02834e+07,-57.5269
5.03268e+07,-53.0869
5.03701e+07,-57.6717
5.04135e+07,-53.2551
5.04568e+07,-57.2037
5.05002e+07,-52.6077
5.05435e+07,-56.4004
5.05869e+07,-53.957
5.06302e+07,-57.5932
5.06736e+07,-53.225
5.07169e+07,-57.6536
5.07603e+07,-53.8757
5.08036e+07,-57.373
5.08469e+07,-53.7752
5.08903e+07,-57.0648
5.09336e+07,-54.3513
5.0977e+07,-54.6975
5.10203e+07,-52.8588
5.10637e+07,-55.6251
5.1107e+07,-53.5726
5.11504e+07,-54.8455
5.11937e+07,-53.0913
5.12371e+07,-53.7802
5.12804e+07,-50.3859
5.13238e+07,-52.8523
5.13671e+07,-52.2174
5.14105e+07,-54.4267
5.14538e+07,-52.5058
5.14972e+07,-53.9477
5.15405e+07,-52.8376
5.15839e+07,-53.7014
5.16272e+07,-52.7151
5.16706e+07,-53.545
5.17139e+07,-53.3084
5.17573e+07,-53.1227
5.18006e+07,-53.3792
5.18439e+07,-53.4855
5.18873e+07,-51.1589
5.19306e+07,-51.525
5.1974e+07,-50.4568
5.20173e+07,-52.1067
5.20607e+07,-52.0081
5.2104e+07,-53.1796
5.21474e+07,-51.7806
5.21907e+07,-53.298
5.22341e+07,-51.9164
5.22774e+07,-52.487
5.23208e+07,-52.2601
5.23641e+07,-52.6058
5.24075e+07,-53.259
5.24508e+07,-52.1971
5.24942e+07,-52.9019
5.25375e+07,-51.5992
5.25809e+07,-52.9341
5.26242e+07,-51.6086
5.26676e+07,-52.4055
5.27109e+07,-54.6367
5.27543e+07,-53.2008
5.27976e+07,-54.4508
5.28409e+07,-50.9609
5.28843e+07,-51.3764
5.29276e+07,-51.2216
5.2971e+07,-49.6196
5.30143e+07,-49.1594
5.30577e+07,-50.9535
5.3101e+07,-49.732
5.31444e+07,-50.8057
5.31877e+07,-51.8657
5.32311e+07,-51.7549
5.32744e+07,-51.5388
5.33178e+07,-52.232
5.33611e+07,-52.9316
5.34045e+07,-52.7439
5.34478e+07,-52.4994
5.34912e+07,-53.1272
5.35345e+07,-51.8959
5.35779e+07,-54.0708
5.36212e+07,-52.4064
5.36646e+07,-53.2198
5.37079e+07,-51.6234
5.37513e+07,-53.1177
5.37946e+07,-51.3487
5.38379e+07,-53.6618
5.38813e+07,-53.1144
5.39246e+07,-53.0725
5.3968e+07,-51.9373
5.40113e+07,-51.5738
5.40547e+07,-51.3562
5.4098e+07,-52.2361
5.41414e+07,-51.2865
5.41847e+07,-52.2463
5.42281e+07,-52.366
5.42714e+07,-51.3295
5.43148e+07,-51.9868
5.43581e+07,-52.094
5.44015e+07,-50.7763
5.44448e+07,-51.3714
5.44882e+07,-51.4688
5.45315e+07,-52.2963
5.45749e+07,-52.2345
5.46182e+07,-52.645
5.46616e+07,-53.3018
5.47049e+07,-53.7302
5.47482e+07,-53.5701
5.47916e+07,-54.8215
5.48349e+07,-54.0667
5.48783e+07,-54.8512
5.49216e+07,-53.2201
5.4965e+07,-55.0311
5.50083e+07,-55.4237
5.50517e+07,-54.9697
5.5095e+07,-55.6741
5.51384e+07,-55.803
5.51817e+07,-54.9872
5.52251e+07,-54.696
5.52684e+07,-55.2436
5.53118e+07,-52.303
5.53551e+07,-52.7793
5.53985e+07,-54.2872
5.54418e+07,-54.4693
5.54852e+07,-55.3452
5.55285e+07,-54.7612
5.55719e+07,-54.7716
5.56152e+07,-53.9457
5.56586e+07,-53.7038
5.57019e+07,-52.9766
5.57452e+07,-52.4183
5.57886e+07,-52.2555
5.58319e+07,-52.6919
5.58753e+07,-50.0594
5.59186e+07,-48.4008
5.5962e+07,-48.6298
5.60053e+07,-49.6963
5.60487e+07,-46.7516
5.6092e+07,-46.502
5.61354e+07,-47.8932
5.61787e+07,-48.0088
5.62221e+07,-47.2947
5.62654e+07,-47.5958
5.63088e+07,-48.4392
5.63521e+07,-46.3778
5.63955e+07,-47.715
5.64388e+07,-46.5077
5.64822e+07,-47.4402
5.65255e+07,-48.3461
5.65689e+07,-49.5484
5.66122e+07,-47.3254
5.66556e+07,-48.0645
5.66989e+07,-45.9885
5.67422e+07,-46.243
5.67856e+07,-47.8138
5.68289e+07,-46.6902
5.68723e+07,-46.3814
5.69156e+07,-48.1499
5.6959e+07,-47.9295
5.70023e+07,-46.1217
5.70457e+07,-47.8146
5.7089e+07,-48.1813
5.71324e+07,-46.2991
5.71757e+07,-48.2346
5.72191e+07,-49.5946
5.72624e+07,-47.8938
5.73058e+07,-48.3798
5.73491e+07,-48.4092
5.73925e+07,-48.3855
5.74358e+07,-46.5177
5.74792e+07,-46.107
5.75225e+07,-48.5274
5.75659e+07,-46.5201
5.76092e+07,-47.5951
5.76526e+07,-46.7575
5.76959e+07,-47.0209
5.77392e+07,-48.0463
5.77826e+07,-46.5521
5.78259e+07,-47.4592
5.78693e+07,-48.7821
5.79126e+07,-47.0068
5.7956e+07,-47.7326
5.79993e+07,-48.8417
5.80427e+07,-48.3479
5.8086e+07,-47.5855
5.81294e+07,-50.5095
5.81727e+07,-47.9801
5.82161e+07,-48.2643
5.82594e+07,-48.1058
5.83028e+07,-48.8649
5.83461e+07,-48.0926
5.83895e+07,-47.5291
5.84328e+07,-48.9055
5.84762e+07,-47.0969
5.85195e+07,-47.8781
5.85629e+07,-48.6565
5.86062e+07,-47.4754
5.86495e+07,-47.1546
5.86929e+07,-48.3774
5.87362e+07,-49.8296
5.87796e+07,-49.8922
5.88229e+07,-48.7071
5.88663e+07,-49.4623
5.89096e+07,-49.5693
5.8953e+07,-49.0826
5.89963e+07,-49.4014
5.90397e+07,-49.0779
5.9083e+07,-49.2783
5.91264e+07,-48.0535
5.91697e+07,-47.5371
5.92131e+07,-49.1716
5.92564e+07,-48.6748
5.92998e+07,-47.939
5.93431e+07,-50.1824
5.93865e+07,-49.5952
5.94298e+07,-48.4624
5.94732e+07,-47.9898
5.95165e+07,-49.1114
5.95599e+07,-49.0457
5.96032e+07,-48.9644
5.96465e+07,-48.6808
5.96899e+07,-49.5607
5.97332e+07,-49.0907
5.97766e+07,-47.4583
5.98199e+07,-48.098
5.98633e+07,-46.7264
5.99066e+07,-47.6945
5.995e+07,-48.9224
5.99933e+07,-48.9743
6.00367e+07,-48.5487
6.008e+07,-48.8748
6.01234e+07,-49.3066
6.01667e+07,-49.2841
6.02101e+07,-48.0404
6.02534e+07,-50.8389
6.02968e+07,-49.2188
6.03401e+07,-49.7311
6.03835e+07,-51.021
6.04268e+07,-50.5104
6.04702e+07,-50.7596
6.05135e+07,-51.1885
6.05569e+07,-51.4475
6.06002e+07,-51.3404
6.06435e+07,-51.9252
6.06869e+07,-51.1337
6.07302e+07,-52.6052
6.07736e+07,-51.9819
6.08169e+07,-50.532
6.08603e+07,-50.1654
6.09036e+07,-50.5179
6.0947e+07,-52.7507
6.09903e+07,-51.8127
6.10337e+07,-53.693
6.1077e+07,-50.4639
6.11204e+07,-52.1453
6.11637e+07,-50.2153
6.12071e+07,-50.11
6.12504e+07,-51.6111
6.12938e+07,-51.1692
6.13371e+07,-52.3347
6.13805e+07,-52.1655
6.14238e+07,-50.7056
6.14672e+07,-51.4608
6.15105e+07,-52.6457
6.15539e+07,-51.1987
6.15972e+07,-52.2576
6.16405e+07,-52.0334
6.16839e+07,-50.9149
6.17272e+07,-52.5755
6.17706e+07,-51.6111
6.18139e+07,-53.8205
6.18573e+07,-53.1014
6.19006e+07,-51.7384
6.1944e+07,-50.7561
6.19873e+07,-52.9179
6.20307e+07,-53.2381
6.2074e+07,-53.8152
6.21174e+07,-51.8625
6.21607e+07,-52.4851
6.22041e+07,-54.6415
6.22474e+07,-53.9223
6.22908e+07,-52.7808
6.23341e+07,-52.9653
6.23775e+07,-53.2534
6.24208e+07,-54.2955
6.24642e+07,-54.0644
6.25075e+07,-53.7813
6.25509e+07,-54.032
6.25942e+07,-53.6892
6.26375e+07,-52.9675
6.26809e+07,-53.9771
6.27242e+07,-53.4718
6.27676e+07,-55.1488
6.28109e+07,-53.7166
6.28543e+07,-53.5534
6.28976e+07,-55.3038
6.2941e+07,-54.7143
6.29843e+07,-55.012
6.30277e+07,-55.1665
6.3071e+07,-55.3501
6.31144e+07,-55.159
6.31577e+07,-55.0749
6.32011e+07,-55.3817
6.32444e+07,-55.0929
6.32878e+07,-55.9813
6.33311e+07,-57.0687
6.33745e+07,-56.4215
6.34178e+07,-55.3305
6.34612e+07,-57.3683
6.35045e+07,-54.9318
6.35478e+07,-56.5601
6.35912e+07,-55.5039
6.36345e+07,-56.2966
6.36779e+07,-57.0771
6.37212e+07,-56.4717
6.37646e+07,-56.5963
6.38079e+07,-57.1919
6.38513e+07,-54.9632
6.38946e+07,-49.3905
6.3938e+07,-55.9335
6.39813e+07,-56.7112
6.40247e+07,-55.091
6.4068e+07,-56.9602
6.41114e+07,-57.8183
6.41547e+07,-57.7043
6.41981e+07,-57.0188
6.42414e+07,-57.2164
6.42848e+07,-58.0886
6.43281e+07,-58.2914
6.43715e+07,-57.0093
6.44148e+07,-58.3334
6.44582e+07,-57.895
6.45015e+07,-58.7836
6.45448e+07,-57.8823
6.45882e+07,-58.1654
6.46315e+07,-58.288
6.46749e+07,-58.0288
6.47182e+07,-58.8923
6.47616e+07,-59.7387
6.48049e+07,-59.4122
6.48483e+07,-59.3524
6.48916e+07,-60.5015
6.4935e+07,-60.5218
6.49783e+07,-59.1697
6.50217e+07,-60.7841
6.5065e+07,-61.0801
6.51084e+07,-59.4565
6.51517e+07,-59.3755
6.51951e+07,-59.019
6.52384e+07,-59.8976
6.52818e+07,-59.059
6.53251e+07,-57.6061
6.53685e+07,-57.6011
6.54118e+07,-59.1861
6.54552e+07,-59.5952
6.54985e+07,-58.6787
6.55418e+07,-59.0814
6.55852e+07,-59.116
6.56285e+07,-66.4629
6.56719e+07,-66.6882
6.57152e+07,-65.9647
6.57586e+07,-65.0641
6.58019e+07,-64.8429
6.58453e+07,-65.4213
6.58886e+07,-63.9702
6.5932e+07,-62.8553
6.59753e+07,-62.8864
6.60187e+07,-61.5282
6.6062e+07,-55.2034
6.61054e+07,-48.6609
6.61487e+07,-46.744
6.61921e+07,-46.0409
6.62354e+07,-44.2377
6.62788e+07,-42.0961
6.63221e+07,-30.2484
6.63655e+07,-41.2469
6.64088e+07,-39.6957
6.64522e+07,-42.5054
6.64955e+07,-41.6502
6.65388e+07,-42.3333
6.65822e+07,-42.3231
6.66255e+07,-43.9487
6.66689e+07,-44.8975
6.67122e+07,-45.1954
6.67556e+07,-48.4593
6.67989e+07,-44.643
6.68423e+07,-43.3402
6.68856e+07,-43.6595
6.6929e+07,-43.8291
6.69723e+07,-42.8809
6.70157e+07,-43.7441
6.7059e+07,-44.0866
6.71024e+07,-45.07
6.71457e+07,-45.3782
6.71891e+07,-44.2636
6.72324e+07,-43.4779
6.72758e+07,-44.9232
6.73191e+07,-45.0678
6.73625e+07,-44.819
6.74058e+07,-45.7331
6.74491e+07,-50.0439
6.74925e+07,-50.0469
6.75358e+07,-47.5498
6.75792e+07,-45.9145
6.76225e+07,-43.2419
6.76659e+07,-44.9115
6.77092e+07,-46.9739
6.77526e+07,-45.3026
6.77959e+07,-45.5529
6.78393e+07,-44.5843
6.78826e+07,-44.4152
6.7926e+07,-41.8634
6.79693e+07,-42.2256
6.80127e+07,-42.4918
6.8056e+07,-44.6001
6.80994e+07,-47.0441
6.81427e+07,-47.6113
6.81861e+07,-49.2928
6.82294e+07,-49.5749
6.82728e+07,-51.3161
6.83161e+07,-49.5448
6.83595e+07,-48.1378
6.84028e+07,-49.2559
6.84461e+07,-53.3918
6.84895e+07,-54.3794
6.85328e+07,-55.9808
6.85762e+07,-59.6676
6.86195e+07,-55.2398
6.86629e+07,-52.9345
6.87062e+07,-55.9986
6.87496e+07,-55.4572
6.87929e+07,-54.1353
6.88363e+07,-53.9017
6.88796e+07,-52.3073
6.8923e+07,-51.0141
6.89663e+07,-49.7064
6.90097e+07,-49.7644
6.9053e+07,-48.659
6.90964e+07,-49.7208
6.91397e+07,-50.1413
6.91831e+07,-55.8808
6.92264e+07,-55.0512
6.92698e+07,-53.2369
6.93131e+07,-53.6314
6.93565e+07,-52.8282
6.93998e+07,-57.7683
6.94431e+07,-61.9992
6.94865e+07,-63.9111
6.95298e+07,-62.5491
6.95732e+07,-56.9583
6.96165e+07,-54.9135
6.96599e+07,-53.4702
6.97032e+07,-51.9072
6.97466e+07,-50.0936
6.97899e+07,-50.5926
6.98333e+07,-50.7117
6.98766e+07,-52.7153
6.992e+07,-55.9131
6.99633e+07,-50.8613
7.00067e+07,-51.5803
7.005e+07,-54.1193
7.00934e+07,-53.0139
7.01367e+07,-58.1858
7.01801e+07,-53.2273
7.02234e+07,-51.3208
7.02668e+07,-51.9109
7.03101e+07,-53.6691
7.03535e+07,-58.8816
7.03968e+07,-62.3052
7.04401e+07,-64.5509
7.04835e+07,-68.2423
7.05268e+07,-62.668
7.05702e+07,-57.8152
7.06135e+07,-60.204
7.06569e+07,-65.7389
7.07002e+07,-58.8808
7.07436e+07,-53.9865
7.07869e+07,-54.9572
7.08303e+07,-58.8242
7.08736e+07,-55.0873
7.0917e+07,-54.305
7.09603e+07,-52.8666
7.10037e+07,-51.4128
7.1047e+07,-51.3354
7.10904e+07,-52.0697
7.11337e+07,-50.8172
7.11771e+07,-51.2129
7.12204e+07,-52.4957
7.12638e+07,-58.1753
7.13071e+07,-55.7194
7.13505e+07,-52.8897
7.13938e+07,-52.5604
7.14371e+07,-50.0181
7.14805e+07,-50.3191
7.15238e+07,-49.8048
7.15672e+07,-48.9618
7.16105e+07,-52.2336
7.16539e+07,-52.6764
7.16972e+07,-49.4638
7.17406e+07,-50.717
7.17839e+07,-51.0278
7.18273e+07,-52.8195
7.18706e+07,-58.3287
7.1914e+07,-59.7839
7.19573e+07,-63.1121
7.20007e+07,-69.7168
7.2044e+07,-70.2224
7.20874e+07,-62.5688
7.21307e+07,-57.849
7.21741e+07,-58.9452
7.22174e+07,-65.5996
7.22608e+07,-58.4209
7.23041e+07,-64.5681
7.23474e+07,-63.7348
7.23908e+07,-47.2294
7.24341e+07,-67.3034
7.24775e+07,-67.9521
7.25208e+07,-69.5501
7.25642e+07,-68.2871
7.26075e+07,-69.3404
7.26509e+07,-68.9268
7.26942e+07,-68.3202
7.27376e+07,-67.5979
7.27809e+07,-64.8654
7.28243e+07,-67.816
7.28676e+07,-65.0757
7.2911e+07,-44.5977
7.29543e+07,-12.7129
7.29977e+07,-46.8031
7.3041e+07,-63.0181
7.30844e+07,-66.5672
7.31277e+07,-66.3978
7.31711e+07,-67.9105
7.32144e+07,-69.0702
7.32578e+07,-69.1158
7.33011e+07,-70.4196
7.33444e+07,-70.2506
7.33878e+07,-68.3269
7.34311e+07,-67.9338
7.34745e+07,-65.5477
7.35178e+07,-67.353
7.35612e+07,-69.2166
7.36045e+07,-69.2165
7.36479e+07,-67.9976
7.36912e+07,-68.5898
7.37346e+07,-66.4501
7.37779e+07,-65.6695
7.38213e+07,-65.0677
7.38646e+07,-66.0347
7.3908e+07,-64.2496
7.39513e+07,-66.7797
7.39947e+07,-66.843
7.4038e+07,-64.6623
7.40814e+07,-65.5951
7.41247e+07,-65.2473
7.41681e+07,-64.1396
7.42114e+07,-64.9581
7.42548e+07,-65.2118
7.42981e+07,-64.9522
7.43414e+07,-64.8504
7.43848e+07,-62.5805
7.44281e+07,-63.7693
7.44715e+07,-64.1648
7.45148e+07,-62.0194
7.45582e+07,-64.1854
7.46015e+07,-63.924
7.46449e+07,-64.2269
7.46882e+07,-64.4384
7.47316e+07,-63.0186
7.47749e+07,-65.2516
7.48183e+07,-64.0506
7.48616e+07,-64.5892
7.4905e+07,-63.4184
7.49483e+07,-64.5401
7.49917e+07,-63.7978
7.5035e+07,-62.6571
7.50784e+07,-64.384
7.51217e+07,-63.7034
7.51651e+07,-63.1828
7.52084e+07,-62.2311
7.52518e+07,-64.8258
7.52951e+07,-63.8419
7.53384e+07,-62.3436
7.53818e+07,-63.7968
7.54251e+07,-62.9806
7.54685e+07,-64.121
7.55118e+07,-61.6791
7.55552e+07,-60.854
7.55985e+07,-64.9604
7.56419e+07,-64.479
7.56852e+07,-63.5509
7.57286e+07,-63.5363
7.57719e+07,-63.786
7.58153e+07,-65.6832
7.58586e+07,-63.0387
7.5902e+07,-62.69
7.59453e+07,-65.5175
7.59887e+07,-64.1094
7.6032e+07,-64.4084
7.60754e+07,-64.1041
7.61187e+07,-61.2146
7.61621e+07,-64.2389
7.62054e+07,-62.4007
7.62487e+07,-63.7106
7.62921e+07,-64.9134
7.63354e+07,-65.6449
7.63788e+07,-63.0283
7.64221e+07,-64.6621
7.64655e+07,-61.2285
7.65088e+07,-64.2959
7.65522e+07,-63.607
7.65955e+07,-64.0258
7.66389e+07,-64.9012
7.66822e+07,-64.1491
7.67256e+07,-63.7242
7.67689e+07,-65.0952
7.68123e+07,-63.2768
7.68556e+07,-64.3003
7.6899e+07,-64.9858
7.69423e+07,-62.4541
7.69857e+07,-65.1585
7.7029e+07,-64.2578
7.70724e+07,-61.1938
7.71157e+07,-64.2314
7.71591e+07,-63.3702
7.72024e+07,-65.3761
7.72457e+07,-64.6987
7.72891e+07,-64.1063
7.73324e+07,-64.2413
7.73758e+07,-64.7816
7.74191e+07,-65.2217
7.74625e+07,-64.0135
7.75058e+07,-63.7273
7.75492e+07,-65.6852
7.75925e+07,-63.8614
7.76359e+07,-63.2654
7.76792e+07,-64.4957
7.77226e+07,-64.5064
7.77659e+07,-65.623
7.78093e+07,-63.7216
7.78526e+07,-64.6696
7.7896e+07,-63.4781
7.79393e+07,-64.7302
7.79827e+07,-64.5981
7.8026e+07,-62.9202
7.80694e+07,-65.2319
7.81127e+07,-63.468
7.81561e+07,-66.076
7.81994e+07,-65.4396
7.82427e+07,-64.3499
7.82861e+07,-67.0182
7.83294e+07,-65.6032
7.83728e+07,-65.4032
7.84161e+07,-67.4392
7.84595e+07,-64.4186
7.85028e+07,-66.7478
7.85462e+07,-67.0682
7.85895e+07,-66.7686
7.86329e+07,-66.5265
7.86762e+07,-65.9846
7.87196e+07,-65.8447
7.87629e+07,-65.6514
7.88063e+07,-65.8951
7.88496e+07,-65.2359
7.8893e+07,-65.8003
7.89363e+07,-64.6067
7.89797e+07,-64.6945
7.9023e+07,-65.8063
7.90664e+07,-65.9965
7.91097e+07,-63.1133
7.91531e+07,-66.1975
7.91964e+07,-64.4275
7.92397e+07,-63.6788
7.92831e+07,-62.9352
7.93264e+07,-65.2465
7.93698e+07,-63.9024
7.94131e+07,-63.8021
7.94565e+07,-63.2283
7.94998e+07,-63.4407
7.95432e+07,-64.6987
7.95865e+07,-63.8466
7.96299e+07,-64.2253
7.96732e+07,-64.22
7.97166e+07,-66.0206
7.97599e+07,-65.7482
7.98033e+07,-65.7356
7.98466e+07,-66.6127
7.989e+07,-48.0913
7.99333e+07,-48.0497
7.99767e+07,-66.0781
8.002e+07,-67.0357
8.00634e+07,-65.9365
8.01067e+07,-65.429
8.01501e+07,-66.8848
8.01934e+07,-52.8854
8.02367e+07,-67.3444
8.02801e+07,-67.9816
8.03234e+07,-67.9333
8.03668e+07,-67.7036
8.04101e+07,-67.8136
8.04535e+07,-65.9803
8.04968e+07,-66.9125
8.05402e+07,-68.5475
8.05835e+07,-67.758
8.06269e+07,-67.0632
8.06702e+07,-66.273
8.07136e+07,-69.0339
8.07569e+07,-67.6949
8.08003e+07,-68.0533
8.08436e+07,-68.0532
8.0887e+07,-66.2196
8.09303e+07,-67.3727
8.09737e+07,-66.4192
8.1017e+07,-68.1756
8.10604e+07,-67.6165
8.11037e+07,-67.9074
8.1147e+07,-68.4348
8.11904e+07,-68.8259
8.12337e+07,-67.4324
8.12771e+07,-68.6933
8.13204e+07,-68.6845
8.13638e+07,-66.6505
8.14071e+07,-68.0926
8.14505e+07,-67.7167
8.14938e+07,-68.0679
8.15372e+07,-67.4014
8.15805e+07,-67.4923
8.16239e+07,-67.7949
8.16672e+07,-70.283
8.17106e+07,-68.4761
8.17539e+07,-66.6426
8.17973e+07,-67.1626
8.18406e+07,-68.2648
8.1884e+07,-67.6145
8.19273e+07,-68.4585
8.19707e+07,-68.9855
8.2014e+07,-55.7626
8.20574e+07,-61.4706
8.21007e+07,-68.3986
8.2144e+07,-69.1404
8.21874e+07,-69.6825
8.22307e+07,-69.8709
8.22741e+07,-69.6333
8.23174e+07,-70.7903
8.23608e+07,-68.7258
8.24041e+07,-68.1065
8.24475e+07,-68.814
8.24908e+07,-69.4112
8.25342e+07,-67.1242
8.25775e+07,-67.49
8.26209e+07,-69.2134
8.26642e+07,-70.4291
8.27076e+07,-69.4107
8.27509e+07,-68.8399
8.27943e+07,-68.1713
8.28376e+07,-65.2263
8.2881e+07,-63.7838
8.29243e+07,-63.1503
8.29677e+07,-65.0977
8.3011e+07,-61.6105
8.30544e+07,-61.7669
8.30977e+07,-63.2242
8.3141e+07,-65.103
8.31844e+07,-60.2695
8.32277e+07,-50.5995
8.32711e+07,-35.2346
8.33144e+07,-54.469
8.33578e+07,-59.7815
8.34011e+07,-64.4819
8.34445e+07,-63.7775
8.34878e+07,-61.9654
8.35312e+07,-68.2026
8.35745e+07,-68.4375
8.36179e+07,-67.6569
8.36612e+07,-67.3287
8.37046e+07,-67.4644
8.37479e+07,-70.6651
8.37913e+07,-68.6002
8.38346e+07,-72.07
8.3878e+07,-70.9214
8.39213e+07,-72.7834
8.39647e+07,-68.6694
8.4008e+07,-69.3318
8.40514e+07,-65.1999
8.40947e+07,-67.1718
8.4138e+07,-65.516
8.41814e+07,-64.4639
8.42247e+07,-66.9751
8.42681e+07,-67.4935
8.43114e+07,-64.1567
8.43548e+07,-64.4689
8.43981e+07,-61.8669
8.44415e+07,-66.533
8.44848e+07,-68.376
8.45282e+07,-70.4783
8.45715e+07,-70.5538
8.46149e+07,-72.7817
8.46582e+07,-71.5902
8.47016e+07,-71.8006
8.47449e+07,-69.4439
8.47883e+07,-70.3177
8.48316e+07,-71.6389
8.4875e+07,-68.1416
8.49183e+07,-68.9333
8.49617e+07,-71.0213
8.5005e+07,-70.4235
8.50483e+07,-68.1742
8.50917e+07,-69.1149
8.5135e+07,-71.9005
8.51784e+07,-71.8877
8.52217e+07,-71.3001
8.52651e+07,-72.6686
8.53084e+07,-71.8874
8.53518e+07,-70.3375
8.53951e+07,-70.2846
8.54385e+07,-71.3352
8.54818e+07,-69.9235
8.55252e+07,-68.2643
8.55685e+07,-70.3794
8.56119e+07,-71.4544
8.56552e+07,-70.7934
8.56986e+07,-71.2166
8.57419e+07,-72.2219
8.57853e+07,-70.9964
8.58286e+07,-71.7231
8.5872e+07,-72.6119
8.59153e+07,-72.9486
8.59587e+07,-71.0304
8.6002e+07,-72.4345
8.60453e+07,-72.6945
8.60887e+07,-72.9769
8.6132e+07,-72.9911
8.61754e+07,-73.18
8.62187e+07,-72.9051
8.62621e+07,-72.7637
8.63054e+07,-72.5287
8.63488e+07,-73.0194
8.63921e+07,-72.5558
8.64355e+07,-73.5242
8.64788e+07,-70.9038
8.65222e+07,-72.3127
8.65655e+07,-71.8339
8.66089e+07,-72.4871
8.66522e+07,-72.2858
8.66956e+07,-70.9373
8.67389e+07,-70.0016
8.67823e+07,-66.5342
8.68256e+07,-54.8205
8.6869e+07,-61.5011
8.69123e+07,-67.8138
8.69557e+07,-70.6573
8.6999e+07,-70.779
8.70423e+07,-72.1533
8.70857e+07,-71.2602
8.7129e+07,-71.7075
8.71724e+07,-70.4935
8.72157e+07,-70.9134
8.72591e+07,-71.3546
8.73024e+07,-71.1194
8.73458e+07,-71.596
8.73891e+07,-70.834
8.74325e+07,-70.2377
8.74758e+07,-71.608
8.75192e+07,-71.0381
8.75625e+07,-70.6339
8.76059e+07,-71.0264
8.76492e+07,-61.7204
8.76926e+07,-44.6103
8.77359e+07,-49.9241
8.77793e+07,-48.3453
8.78226e+07,-49.2466
8.7866e+07,-55.9363
8.79093e+07,-68.7301
8.79527e+07,-68.1425
8.7996e+07,-67.0819
8.80393e+07,-51.3159
8.80827e+07,-51.2461
8.8126e+07,-55.8433
8.81694e+07,-57.6885
8.82127e+07,-65.7403
8.82561e+07,-57.5194
8.82994e+07,-55.7199
8.83428e+07,-56.1024
8.83861e+07,-35.4015
8.84295e+07,-18.3741
8.84728e+07,-8.71129
8.85162e+07,-7.72831
8.85595e+07,-7.45912
8.86029e+07,-12.9871
8.86462e+07,-31.2557
8.86896e+07,-48.7626
8.87329e+07,-50.1376
8.87763e+07,-53.8617
8.88196e+07,-59.0543
8.8863e+07,-49.2872
8.89063e+07,-49.6604
8.89496e+07,-50.7699
8.8993e+07,-60.9827
8.90363e+07,-68.3061
8.90797e+07,-64.7534
8.9123e+07,-58.8959
8.91664e+07,-61.9558
8.92097e+07,-68.1148
8.92531e+07,-46.2457
8.92964e+07,-44.8821
8.93398e+07,-44.4542
8.93831e+07,-58.9695
8.94265e+07,-43.0591
8.94698e+07,-37.5536
8.95132e+07,-36.2225
8.95565e+07,-34.7613
8.95999e+07,-34.1384
8.96432e+07,-53.5594
8.96866e+07,-57.0397
8.97299e+07,-59.4426
8.97733e+07,-57.6304
8.98166e+07,-70.2319
8.986e+07,-66.4181
8.99033e+07,-62.9685
8.99466e+07,-62.7487
8.999e+07,-61.7266
9.00333e+07,-52.8888
9.00767e+07,-35.3533
9.012e+07,-33.314
9.01634e+07,-32.8521
9.02067e+07,-35.7299
9.02501e+07,-61.6827
9.02934e+07,-61.789
9.03368e+07,-64.5031
9.03801e+07,-68.8573
9.04235e+07,-59.8181
9.04668e+07,-52.229
9.05102e+07,-51.0057
9.05535e+07,-51.1943
9.05969e+07,-58.5362
9.06402e+07,-64.3947
9.06836e+07,-54.3834
9.07269e+07,-53.5537
9.07703e+07,-53.7446
9.08136e+07,-62.2102
9.0857e+07,-50.9762
9.09003e+07,-45.8565
9.09436e+07,-46.1481
9.0987e+07,-59.2628
9.10303e+07,-59.5276
9.10737e+07,-49.906
9.1117e+07,-47.2065
9.11604e+07,-47.3957
9.12037e+07,-56.2786
9.12471e+07,-73.331
9.12904e+07,-71.8477
9.13338e+07,-44.0196
9.13771e+07,-46.6077
9.14205e+07,-62.0724
9.14638e+07,-28.4225
9.15072e+07,-27.0761
9.15505e+07,-26.7543
9.15939e+07,-41.0504
9.16372e+07,-59.7773
9.16806e+07,-59.7803
9.17239e+07,-59.526
9.17673e+07,-73.6346
9.18106e+07,-72.5018
9.1854e+07,-66.8354
9.18973e+07,-59.689
9.19406e+07,-59.4342
9.1984e+07,-62.7527
9.20273e+07,-72.0633
9.20707e+07,-73.4649
9.2114e+07,-42.9274
9.21574e+07,-41.3101
9.22007e+07,-42.7208
9.22441e+07,-25.9173
9.22874e+07,-26.9042
9.23308e+07,-28.0799
9.23741e+07,-29.6018
9.24175e+07,-39.5537
9.24608e+07,-41.4976
9.25042e+07,-41.2491
9.25475e+07,-55.3772
9.25909e+07,-65.1794
9.26342e+07,-72.9039
9.26776e+07,-60.3469
9.27209e+07,-65.3747
9.27643e+07,-62.9344
9.28076e+07,-61.1893
9.2851e+07,-69.1147
9.28943e+07,-57.5374
9.29376e+07,-32.9357
9.2981e+07,-33.0432
9.30243e+07,-26.5227
9.30677e+07,-16.8838
9.3111e+07,-17.244
9.31544e+07,-17.7103
9.31977e+07,-25.4881
9.32411e+07,-38.1707
9.32844e+07,-36.8688
9.33278e+07,-38.0384
9.33711e+07,-68.877
9.34145e+07,-65.7153
9.34578e+07,-38.6803
9.35012e+07,-39.8239
9.35445e+07,-41.9724
9.35879e+07,-41.2078
9.36312e+07,-56.9412
9.36746e+07,-67.4252
9.37179e+07,-37.2305
9.37613e+07,-35.5767
9.38046e+07,-36.6564
9.38479e+07,-20.7081
9.38913e+07,-18.8561
9.39346e+07,-18.4383
9.3978e+07,-20.2518
9.40213e+07,-25.9888
9.40647e+07,-36.9354
9.4108e+07,-35.6691
9.41514e+07,-52.3517
9.41947e+07,-62.7918
9.42381e+07,-49.3564
9.42814e+07,-41.3626
9.43248e+07,-40.1092
9.43681e+07,-45.024
9.44115e+07,-47.634
9.44548e+07,-63.6275
9.44982e+07,-57.4826
9.45415e+07,-41.4037
9.45849e+07,-42.73
9.46282e+07,-26.4866
9.46716e+07,-24.5705
9.47149e+07,-25.5942
9.47583e+07,-27.6687
9.48016e+07,-26.8837
9.48449e+07,-39.8626
9.48883e+07,-43.1289
9.49316e+07,-44.5355
9.4975e+07,-71.7509
9.50183e+07,-65.5509
9.50617e+07,-57.1399
9.5105e+07,-36.5289
9.51484e+07,-36.3615
9.51917e+07,-37.4234
9.52351e+07,-63.9555
9.52784e+07,-71.7752
9.53218e+07,-49.2745
9.53651e+07,-48.9787
9.54085e+07,-49.9849
9.54518e+07,-32.7948
9.54952e+07,-30.5318
9.55385e+07,-32.5598
9.55819e+07,-31.8389
9.56252e+07,-40.3833
9.56686e+07,-51.1447
9.57119e+07,-51.4193
9.57553e+07,-70.3443
9.57986e+07,-74.2853
9.58419e+07,-64.6761
9.58853e+07,-63.5217
9.59286e+07,-54.5019
9.5972e+07,-56.322
9.60153e+07,-64.1755
9.60587e+07,-74.8374
9.6102e+07,-59.0658
9.61454e+07,-46.6503
9.61887e+07,-45.7996
9.62321e+07,-34.1026
9.62754e+07,-32.3177
9.63188e+07,-29.8276
9.63621e+07,-26.8493
9.64055e+07,-27.9954
9.64488e+07,-42.2033
9.64922e+07,-40.3391
9.65355e+07,-43.749
9.65789e+07,-71.7972
9.66222e+07,-65.9993
9.66656e+07,-56.2802
9.67089e+07,-54.0993
9.67523e+07,-53.2239
9.67956e+07,-53.7443
9.68389e+07,-68.031
9.68823e+07,-67.5939
9.69256e+07,-39.8566
9.6969e+07,-39.2402
9.70123e+07,-42.0697
9.70557e+07,-34.5432
9.7099e+07,-30.9088
9.71424e+07,-27.5737
9.71857e+07,-27.29
9.72291e+07,-37.3094
9.72724e+07,-39.5912
9.73158e+07,-40.1355
9.73591e+07,-70.469
9.74025e+07,-68.5935
9.74458e+07,-46.7661
9.74892e+07,-39.0848
9.75325e+07,-38.7505
9.75759e+07,-40.0688
9.76192e+07,-59.4206
9.76626e+07,-74.7625
9.77059e+07,-51.0551
9.77492e+07,-44.4404
9.77926e+07,-41.9258
9.78359e+07,-34.4419
9.78793e+07,-28.2528
9.79226e+07,-28.8468
9.7966e+07,-27.3269
9.80093e+07,-28.6762
9.80527e+07,-43.3413
9.8096e+07,-42.6986
9.81394e+07,-44.0675
9.81827e+07,-74.3131
9.82261e+07,-72.0873
9.82694e+07,-60.0038
9.83128e+07,-60.0686
9.83561e+07,-62.7818
9.83995e+07,-62.5966
9.84428e+07,-74.1461
9.84862e+07,-72.9327
9.85295e+07,-41.5434
9.85729e+07,-42.4158
9.86162e+07,-47.1952
9.86596e+07,-38.1768
9.87029e+07,-22.7267
9.87462e+07,-22.1693
9.87896e+07,-34.173
9.88329e+07,-51.7717
9.88763e+07,-45.3917
9.89196e+07,-46.8603
9.8963e+07,-73.9332
9.90063e+07,-75.139
9.90497e+07,-68.0094
9.9093e+07,-51.2857
9.91364e+07,-38.4692
9.91797e+07,-65.4495
9.92231e+07,-74.3781
9.92664e+07,-74.6183
9.93098e+07,-55.5799
9.93531e+07,-50.2753
9.93965e+07,-48.9972
9.94398e+07,-40.8289
9.94832e+07,-33.6894
9.95265e+07,-31.2498
9.95699e+07,-30.0641
9.96132e+07,-32.3608
9.96566e+07,-43.7939
9.96999e+07,-43.6902
9.97432e+07,-45.2743
9.97866e+07,-70.9513
9.98299e+07,-71.6646
9.98733e+07,-51.3829
9.99166e+07,-52.1747
9.996e+07,-51.9579
1.00003e+08,-65.144
1.00047e+08,-71.7512
1.0009e+08,-67.9582
1.00133e+08,-61.5153
1.00177e+08,-61.5887
1.0022e+08,-48.8515
1.00263e+08,-35.4429
1.00307e+08,-34.73
1.0035e+08,-33.1261
1.00393e+08,-34.4571
1.00437e+08,-63.682
1.0048e+08,-61.7013
1.00524e+08,-61.8521
1.00567e+08,-73.4749
1.0061e+08,-73.8173
1.00654e+08,-56.4407
1.00697e+08,-54.5179
1.0074e+08,-53.5635
1.00784e+08,-57.5647
1.00827e+08,-74.1734
1.0087e+08,-74.9516
1.00914e+08,-48.7235
1.00957e+08,-47.1755
1.01e+08,-46.1017
1.01044e+08,-36.0725
1.01087e+08,-29.3391
1.0113e+08,-29.2358
1.01174e+08,-28.9334
1.01217e+08,-32.4642
1.0126e+08,-45.045
1.01304e+08,-45.9584
1.01347e+08,-50.3724
1.0139e+08,-74.4579
1.01434e+08,-61.0655
1.01477e+08,-52.5579
1.01521e+08,-49.0167
1.01564e+08,-49.6575
1.01607e+08,-51.4328
1.01651e+08,-70.644
1.01694e+08,-74.8776
1.01737e+08,-56.3931
1.01781e+08,-58.1646
1.01824e+08,-49.3543
1.01867e+08,-29.3404
1.01911e+08,-27.431
1.01954e+08,-28.3183
1.01997e+08,-30.3354
1.02041e+08,-50.2878
1.02084e+08,-52.7495
1.02127e+08,-52.5234
1.02171e+08,-71.7087
1.02214e+08,-73.5785
1.02257e+08,-64.9821
1.02301e+08,-58.2927
1.02344e+08,-58.1397
1.02387e+08,-59.4728
1.02431e+08,-69.8827
1.02474e+08,-71.3658
1.02518e+08,-60.5963
1.02561e+08,-57.6193
1.02604e+08,-56.7287
1.02648e+08,-41.5723
1.02691e+08,-38.7401
1.02734e+08,-37.6258
1.02778e+08,-39.3518
1.02821e+08,-45.7359
1.02864e+08,-57.3687
1.02908e+08,-56.622
1.02951e+08,-62.6162
1.02994e+08,-75.8215
1.03038e+08,-76.0034
1.03081e+08,-70.1896
1.03124e+08,-68.1887
1.03168e+08,-69.0623
1.03211e+08,-72.7651
1.03254e+08,-74.6087
1.03298e+08,-74.9097
1.03341e+08,-51.3709
1.03384e+08,-50.7664
1.03428e+08,-38.1305
1.03471e+08,-29.1007
1.03515e+08,-28.3288
1.03558e+08,-28.993
1.03601e+08,-29.5514
1.03645e+08,-42.5275
1.03688e+08,-53.3899
1.03731e+08,-54.3048
1.03775e+08,-74.8189
1.03818e+08,-76.0426
1.03861e+08,-68.7981
1.03905e+08,-64.1409
1.03948e+08,-64.4271
1.03991e+08,-67.6234
1.04035e+08,-74.4345
1.04078e+08,-75.7591
1.04121e+08,-53.055
1.04165e+08,-48.3152
1.04208e+08,-48.1786
1.04251e+08,-30.003
1.04295e+08,-28.9789
1.04338e+08,-28.8161
1.04381e+08,-30.5063
1.04425e+08,-38.33
1.04468e+08,-42.8256
1.04512e+08,-43.4714
1.04555e+08,-55.8118
1.04598e+08,-75.6787
1.04642e+08,-75.3311
1.04685e+08,-68.7694
1.04728e+08,-59.5039
1.04772e+08,-61.6871
1.04815e+08,-73.9191
1.04858e+08,-72.7894
1.04902e+08,-71.8024
1.04945e+08,-60.2338
1.04988e+08,-54.5197
1.05032e+08,-43.726
1.05075e+08,-32.305
1.05118e+08,-31.0216
1.05162e+08,-31.7937
1.05205e+08,-34.731
1.05248e+08,-57.985
1.05292e+08,-63.1755
1.05335e+08,-62.0595
1.05378e+08,-76.2256
1.05422e+08,-75.5399
1.05465e+08,-62.8408
1.05509e+08,-63.5667
1.05552e+08,-63.7044
1.05595e+08,-64.6471
1.05639e+08,-75.1415
1.05682e+08,-75.5393
1.05725e+08,-58.822
1.05769e+08,-56.8464
1.05812e+08,-58.5984
1.05855e+08,-39.9016
1.05899e+08,-38.2503
1.05942e+08,-38.0003
1.05985e+08,-43.45
1.06029e+08,-60.3721
1.06072e+08,-59.0418
1.06115e+08,-55.0776
1.06159e+08,-52.4144
1.06202e+08,-52.1033
1.06245e+08,-36.4704
1.06289e+08,-35.8427
1.06332e+08,-35.6446
1.06375e+08,-35.8561
1.06419e+08,-35.6313
1.06462e+08,-52.0714
1.06506e+08,-50.7321
1.06549e+08,-55.2906
1.06592e+08,-72.8419
1.06636e+08,-56.5453
1.06679e+08,-48.8423
1.06722e+08,-48.2217
1.06766e+08,-48.4099
1.06809e+08,-71.9504
1.06852e+08,-75.9332
1.06896e+08,-75.9534
1.06939e+08,-74.9915
1.06982e+08,-75.3444
1.07026e+08,-75.4205
1.07069e+08,-62.9227
1.07112e+08,-60.4545
1.07156e+08,-60.4955
1.07199e+08,-64.8391
1.07242e+08,-74.7572
1.07286e+08,-73.6283
1.07329e+08,-52.7735
1.07372e+08,-53.7709
1.07416e+08,-48.3972
1.07459e+08,-30.2212
1.07503e+08,-30.9765
1.07546e+08,-32.9695
1.07589e+08,-32.5047
1.07633e+08,-44.7957
1.07676e+08,-53.6103
1.07719e+08,-55.5889
1.07763e+08,-64.3482
1.07806e+08,-64.5373
1.07849e+08,-56.9869
1.07893e+08,-44.4328
1.07936e+08,-44.599
1.07979e+08,-48.7989
1.08023e+08,-61.2532
1.08066e+08,-66.1477
1.08109e+08,-62.7183
1.08153e+08,-65.8245
1.08196e+08,-74.1556
1.08239e+08,-76.0731
1.08283e+08,-76.7151
1.08326e+08,-76.0523
1.08369e+08,-76.6265
1.08413e+08,-76.9398
1.08456e+08,-75.8284
1.08499e+08,-76.8715
1.08543e+08,-73.2446
1.08586e+08,-75.3977
1.0863e+08,-75.3976
1.08673e+08,-75.5905
1.08716e+08,-76.4299
1.0876e+08,-75.9286
1.08803e+08,-74.4915
1.08846e+08,-76.4512
1.0889e+08,-76.0509
1.08933e+08,-76.1128
1.08976e+08,-76.1334
1.0902e+08,-76.5156
1.09063e+08,-75.9482
1.09106e+08,-76.5154
1.0915e+08,-75.1516
1.09193e+08,-76.2796
1.09236e+08,-76.9835
1.0928e+08,-76.4286
1.09323e+08,-76.4932
1.09366e+08,-76.0704
1.0941e+08,-76.5801
1.09453e+08,-76.5146
1.09496e+08,-75.8863
1.0954e+08,-76.1113
1.09583e+08,-75.6078
1.09627e+08,-76.3849
1.0967e+08,-75.2249
1.09713e+08,-74.7336
1.09757e+08,-76.6231
1.098e+08,-76.1522
1.09843e+08,-76.6229
1.09887e+08,-77.1206
1.0993e+08,-75.2995
1.09973e+08,-75.946
1.10017e+08,-76.4916
1.1006e+08,-74.5749
1.10103e+08,-76.6885
1.10147e+08,-75.4899
1.1019e+08,-75.1677
1.10233e+08,-76.0066
1.10277e+08,-75.4896
1.1032e+08,-77.0963
1.10363e+08,-76.0063
1.10407e+08,-76.383
1.1045e+08,-75.7041
1.10493e+08,-77.1191
1.10537e+08,-75.904
1.1058e+08,-76.3612
1.10624e+08,-71.3343
1.10667e+08,-75.1109
1.1071e+08,-75.4885
1.10754e+08,-75.7034
1.10797e+08,-76.4249
1.1084e+08,-76.1082
1.10884e+08,-76.4678
1.10927e+08,-75.7228
1.1097e+08,-73.2686
1.11014e+08,-74.4348
1.11057e+08,-75.3346
1.111e+08,-76.2539
1.11144e+08,-74.5377
1.11187e+08,-76.2537
1.1123e+08,-75.9227
1.11274e+08,-75.5453
1.11317e+08,-76.5537
1.1136e+08,-74.8543
1.11404e+08,-76.7521
1.11447e+08,-75.429
1.1149e+08,-76.359
1.11534e+08,-75.6817
1.11577e+08,-76.2317
1.11621e+08,-74.5712
1.11664e+08,-76.4444
1.11707e+08,-75.3711
1.11751e+08,-74.8713
1.11794e+08,-75.8606
1.11837e+08,-76.2101
1.11881e+08,-76.7957
1.11924e+08,-76.5304
1.11967e+08,-75.78
1.12011e+08,-76.0229
1.12054e+08,-76.5519
1.12097e+08,-77.1854
1.12141e+08,-76.3149
1.12184e+08,-76.7057
1.12227e+08,-74.6922
1.12271e+08,-76.3571
1.12314e+08,-76.2299
1.12357e+08,-74.7804
1.12401e+08,-76.7945
1.12444e+08,-75.739
1.12487e+08,-76.0629
1.12531e+08,-75.5812
1.12574e+08,-75.0511
1.12618e+08,-76.4853
1.12661e+08,-75.7186
1.12704e+08,-75.8988
1.12748e+08,-74.5165
1.12791e+08,-75.7381
1.12834e+08,-75.5221
1.12878e+08,-76.4415
1.12921e+08,-75.5413
1.12964e+08,-75.161
1.13008e+08,-76.2704
1.13051e+08,-76.7259
1.13094e+08,-76.7481
1.13138e+08,-76.4624
1.13181e+08,-76.4407
1.13224e+08,-76.6368
1.13268e+08,-76.419
1.13311e+08,-76.4404
1.13354e+08,-75.8973
1.13398e+08,-76.8371
1.13441e+08,-76.2062
1.13484e+08,-76.3542
1.13528e+08,-76.4831
1.13571e+08,-75.4817
1.13615e+08,-74.1426
1.13658e+08,-76.0394
1.13701e+08,-75.3093
1.13745e+08,-76.9957
1.13788e+08,-76.5696
1.13831e+08,-75.7955
1.13875e+08,-77.0646
1.13918e+08,-74.9202
1.13961e+08,-76.0387
1.14005e+08,-75.7352
1.14048e+08,-77.1339
1.14091e+08,-75.2143
1.14135e+08,-76.8128
1.14178e+08,-76.5032
1.14221e+08,-75.8548
1.14265e+08,-76.5903
1.14308e+08,-76.438
1.14351e+08,-74.8113
1.14395e+08,-76.3095
1.14438e+08,-75.8543
1.14481e+08,-75.2509
1.14525e+08,-75.6746
1.14568e+08,-75.6745
1.14612e+08,-76.4589
1.14655e+08,-76.5021
1.14698e+08,-76.2032
1.14742e+08,-75.8737
1.14785e+08,-74.3746
1.14828e+08,-76.3724
1.14872e+08,-74.6157
1.14915e+08,-75.8531
1.14958e+08,-76.6547
1.15002e+08,-75.6932
1.15045e+08,-75.8126
1.15088e+08,-76.1604
1.15132e+08,-75.7524
1.15175e+08,-75.1186
1.15218e+08,-74.6498
1.15262e+08,-75.8927
1.15305e+08,-75.555
1.15348e+08,-75.9331
1.15392e+08,-76.6537
1.15435e+08,-75.5353
1.15478e+08,-75.8316
1.15522e+08,-75.1178
1.15565e+08,-75.4383
1.15609e+08,-76.5215
1.15652e+08,-76.7643
1.15695e+08,-76.264
1.15739e+08,-76.6528
1.15782e+08,-76.6749
1.15825e+08,-74.9701
1.15869e+08,-75.7906
1.15912e+08,-75.8105
1.15955e+08,-75.8708
1.15999e+08,-75.8505
1.16042e+08,-76.4988
1.16085e+08,-76.1998
1.16129e+08,-76.1579
1.16172e+08,-76.1369
1.16215e+08,-75.9513
1.16259e+08,-76.7852
1.16302e+08,-76.2625
1.16345e+08,-75.9715
1.16389e+08,-76.1364
1.16432e+08,-75.6306
1.16475e+08,-74.9141
1.16519e+08,-76.1153
1.16562e+08,-75.6697
1.16606e+08,-76.0943
1.16649e+08,-76.8745
1.16692e+08,-74.7522
1.16736e+08,-76.0733
1.16779e+08,-73.9064
1.16822e+08,-75.9295
1.16866e+08,-76.219
1.16909e+08,-75.9701
1.16952e+08,-75.9089
1.16996e+08,-76.54
1.17039e+08,-74.6983
1.17082e+08,-75.9086
1.17126e+08,-75.4924
1.17169e+08,-75.2069
1.17212e+08,-76.5832
1.17256e+08,-76.5394
1.17299e+08,-75.9692
1.17342e+08,-76.474
1.17386e+08,-76.4306
1.17429e+08,-75.7868
1.17472e+08,-76.3021
1.17516e+08,-75.867
1.17559e+08,-76.6485
1.17603e+08,-76.1543
1.17646e+08,-76.2171
1.17689e+08,-76.175
1.17733e+08,-76.0296
1.17776e+08,-75.806
1.17819e+08,-75.746
1.17863e+08,-76.4727
1.17906e+08,-76.6255
1.17949e+08,-76.5815
1.17993e+08,-76.2373
1.18036e+08,-75.1861
1.18079e+08,-75.5679
1.18123e+08,-76.4721
1.18166e+08,-76.6029
1.18209e+08,-76.1112
1.18253e+08,-61.9548
1.18296e+08,-75.5284
1.18339e+08,-76.2154
1.18383e+08,-76.5804
1.18426e+08,-75.2791
1.18469e+08,-76.0691
1.18513e+08,-75.9051
1.18556e+08,-76.7797
1.186e+08,-75.8241
1.18643e+08,-76.4708
1.18686e+08,-75.5859
1.1873e+08,-76.0272
1.18773e+08,-74.9995
1.18816e+08,-75.8035
1.1886e+08,-75.4883
1.18903e+08,-75.9449
1.18946e+08,-75.8032
1.1899e+08,-74.7467
1.19033e+08,-63.4757
1.19076e+08,-75.6242
1.1912e+08,-76.4914
1.19163e+08,-74.2459
1.19206e+08,-75.3531
1.1925e+08,-76.4477
1.19293e+08,-76.1921
1.19336e+08,-77.0052
1.1938e+08,-74.0793
1.19423e+08,-76.2762
1.19466e+08,-75.6824
1.1951e+08,-75.0897
1.19553e+08,-76.3183
1.19597e+08,-76.2124
1.1964e+08,-75.8016
1.19683e+08,-75.5835
1.19727e+08,-75.4283
1.1977e+08,-76.8444
1.19813e+08,-76.1909
1.19857e+08,-75.3325
1.199e+08,-75.7609
1.19943e+08,-76.403
1.19987e+08,-75.0885
1.2003e+08,-75.861
1.20073e+08,-75.4275
1.20117e+08,-75.1252
1.2016e+08,-76.3168
1.20203e+08,-75.2559
1.20247e+08,-75.4079
1.2029e+08,-75.962
1.20333e+08,-76.0028
1.20377e+08,-75.1432
1.2042e+08,-75.9821
1.20463e+08,-75.9208
1.20507e+08,-74.9225
1.2055e+08,-76.8652
1.20594e+08,-73.849
1.20637e+08,-74.5322
1.2068e+08,-74.7072
1.20724e+08,-75.1052
1.20767e+08,-75.1051
1.2081e+08,-75.445
1.20854e+08,-74.9398
1.20897e+08,-74.7956
1.2094e+08,-76.2513
1.20984e+08,-75.6196
1.21027e+08,-75.5803
1.2107e+08,-76.3788
1.21114e+08,-75.8181
1.21157e+08,-74.4447
1.212e+08,-74.7414
1.21244e+08,-74.9208
1.21287e+08,-75.7376
1.2133e+08,-75.463
1.21374e+08,-76.8632
1.21417e+08,-75.9797
1.2146e+08,-74.5302
1.21504e+08,-74.4438
1.21547e+08,-73.594
1.21591e+08,-75.6971
1.21634e+08,-76.2497
1.21677e+08,-75.2524
1.21721e+08,-76.1863
1.21764e+08,-75.4427
1.21807e+08,-75.6373
1.21851e+08,-76.186
1.21894e+08,-76.334
1.21937e+08,-75.637
1.21981e+08,-74.9553
1.22024e+08,-75.5389
1.22067e+08,-75.5778
1.22111e+08,-74.7037
1.22154e+08,-75.0464
1.22197e+08,-75.7354
1.22241e+08,-76.3332
1.22284e+08,-75.9164
1.22327e+08,-76.0186
1.22371e+08,-75.6163
1.22414e+08,-76.039
1.22457e+08,-75.6752
1.22501e+08,-75.5768
1.22544e+08,-75.2881
1.22588e+08,-75.5766
1.22631e+08,-75.1378
1.22674e+08,-76.2896
1.22718e+08,-76.3107
1.22761e+08,-75.0818
1.22804e+08,-76.2258
1.22848e+08,-73.9891
1.22891e+08,-75.5758
1.22934e+08,-75.4978
1.22978e+08,-75.459
1.23021e+08,-73.8592
1.23064e+08,-76.0788
1.23108e+08,-75.6539
1.23151e+08,-76.9272
1.23194e+08,-76.4382
1.23238e+08,-75.5555
1.23281e+08,-76.7013
1.23324e+08,-75.1921
1.23368e+08,-74.9702
1.23411e+08,-75.9749
1.23454e+08,-76.0365
1.23498e+08,-76.8128
1.23541e+08,-75.8931
1.23585e+08,-75.5938
1.23628e+08,-76.6782
1.23671e+08,-76.3084
1.23715e+08,-76.6116
1.23758e+08,-76.0979
1.23801e+08,-76.5019
1.23845e+08,-75.2472
1.23888e+08,-75.3038
1.23931e+08,-76.3934
1.23975e+08,-75.9123
1.24018e+08,-75.8312
1.24061e+08,-77.1098
1.24105e+08,-75.9528
1.24148e+08,-76.2648
1.24191e+08,-75.7107
1.24235e+08,-77.1797
1.24278e+08,-76.9703
1.24321e+08,-76.2011
1.24365e+08,-75.0411
1.24408e+08,-76.5879
1.24451e+08,-77.0623
1.24495e+08,-76.2006
1.24538e+08,-75.8907
1.24582e+08,-76.4782
1.24625e+08,-75.4166
1.24668e+08,-76.306
1.24712e+08,-75.9106
1.24755e+08,-76.72
1.24798e+08,-76.9461
1.24842e+08,-76.5649
1.24885e+08,-75.5515
1.24928e+08,-76.5647
1.24972e+08,-76.5646
1.25015e+08,-72.1671
1.25058e+08,-71.3115
1.25102e+08,-75.8085
1.25145e+08,-76.6745
1.25188e+08,-76.608
1.25232e+08,-76.9222
1.25275e+08,-77.2244
1.25318e+08,-76.39
1.25362e+08,-77.3434
1.25405e+08,-77.06
1.25448e+08,-75.7676
1.25492e+08,-77.0366
1.25535e+08,-76.7405
1.25579e+08,-76.7404
1.25622e+08,-76.7179
1.25665e+08,-75.767
1.25709e+08,-77.3426
1.25752e+08,-76.9438
1.25795e+08,-77.129
1.25839e+08,-77.3183
1.25882e+08,-76.7173
1.25925e+08,-76.9434
1.25969e+08,-76.8069
1.26012e+08,-75.9074
1.26055e+08,-76.8974
1.26099e+08,-76.0508
1.26142e+08,-77.1751
1.26185e+08,-76.3451
1.26229e+08,-75.1664
1.26272e+08,-76.2597
1.26315e+08,-77.4619
1.26359e+08,-76.0916
1.26402e+08,-76.8738
1.26445e+08,-75.5283
1.26489e+08,-65.3355
1.26532e+08,-59.4944
1.26576e+08,-76.8734
1.26619e+08,-75.6061
1.26662e+08,-76.3439
1.26706e+08,-77.0569
1.26749e+08,-77.0568
1.26792e+08,-76.7151
1.26836e+08,-77.7074
1.26879e+08,-76.56
1.26922e+08,-75.8444
1.26966e+08,-77.1967
1.27009e+08,-77.1261
1.27052e+08,-74.2605
1.27096e+08,-75.2205
1.27139e+08,-76.4721
1.27182e+08,-76.0275
1.27226e+08,-76.8491
1.27269e+08,-75.7832
1.27312e+08,-76.3423
1.27356e+08,-77.1019
1.27399e+08,-76.2782
1.27442e+08,-77.1956
1.27486e+08,-75.8229
1.27529e+08,-76.4495
1.27573e+08,-76.5364
1.27616e+08,-76.9853
1.27659e+08,-76.9164
1.27703e+08,-76.602
1.27746e+08,-76.4057
1.27789e+08,-75.8828
1.27833e+08,-76.6681
1.27876e+08,-75.682
1.27919e+08,-75.5053
1.27963e+08,-75.8621
1.28006e+08,-76.3836
1.28049e+08,-76.6676
1.28093e+08,-76.7792
1.28136e+08,-76.8243
1.28179e+08,-76.1289
1.28223e+08,-75.2367
1.28266e+08,-76.1078
1.28309e+08,-76.491
1.28353e+08,-74.6711
1.28396e+08,-76.689
1.28439e+08,-76.2757
1.28483e+08,-75.4651
1.28526e+08,-77.0758
1.2857e+08,-75.1049
1.28613e+08,-75.2169
1.28656e+08,-75.1047
1.287e+08,-75.6405
1.28743e+08,-76.1904
1.28786e+08,-76.0858
1.2883e+08,-75.8398
1.28873e+08,-74.8843
1.28916e+08,-76.0234
1.2896e+08,-76.0233
1.29003e+08,-75.5221
1.29046e+08,-76.2108
1.2909e+08,-75.9408
1.29133e+08,-76.9128
1.29176e+08,-75.7586
1.2922e+08,-76.3164
1.29263e+08,-75.1778
1.29306e+08,-75.8387
1.2935e+08,-76.3803
1.29393e+08,-75.3476
1.29436e+08,-76.2945
1.2948e+08,-74.6684
1.29523e+08,-76.5317
1.29567e+08,-75.7377
1.2961e+08,-74.6152
1.29653e+08,-76.1045
1.29697e+08,-75.9598
1.2974e+08,-74.4757
1.29783e+08,-76.209
1.29827e+08,-76.0418
1.2987e+08,-75.4618
1.29913e+08,-75.2893
1.29957e+08,-76.4653
1.3e+08,-76.1664
