FileType,0
Number of Points,3000
Sweep Time,3e+08
Start Frequency,0
Stop Frequency,1.3e+08
Average Count,1
Average Type,0
RBW,10000
RBW Filter,0
RBW Filter BW,0
VBW,10000
Sweep Type,0
X Axis Scale,1
PreAmp State,0
Trigger Source,0
Trigger Level,-25
Trigger Edge,0
Trigger Delay Switch,0
Trigger Delay,1
Attenuation,20
Ref Level Offset,0
External Gain,0
Trace Type,0
Detector,0
Trace Math,5
Trace Math Oper1,4
Trace Math Oper2,5
Trace Math Offset,0
Trace Name,0
Full Span,1.3e+08
Y Axis Unit,0
DATA,
0,-15.1573
43347.8,-63.4079
86695.6,-41.5717
130043,-43.1929
173391,-49.6177
216739,-48.2026
260087,-48.4607
303434,-48.4724
346782,-51.0661
390130,-54.3538
433478,-58.823
476826,-61.5116
520173,-66.208
563521,-68.528
606869,-69.5721
650217,-70.0899
693565,-70.9601
736912,-71.3129
780260,-70.3891
823608,-72.3701
866956,-70.5232
910303,-70.699
953651,-69.9612
996999,-70.6594
1.04035e+06,-69.3307
1.08369e+06,-72.2966
1.12704e+06,-69.8867
1.17039e+06,-72.1542
1.21374e+06,-67.7167
1.25709e+06,-70.4997
1.30043e+06,-65.5124
1.34378e+06,-68.7872
1.38713e+06,-62.4547
1.43048e+06,-66.3549
1.47382e+06,-58.7202
1.51717e+06,-59.9867
1.56052e+06,-55.6534
1.60387e+06,-59.3691
1.64722e+06,-59.6907
1.69056e+06,-64.8481
1.73391e+06,-65.5176
1.77726e+06,-67.822
1.82061e+06,-68.3783
1.86395e+06,-70.114
1.9073e+06,-69.9486
1.95065e+06,-70.452
1.994e+06,-70.7446
2.03735e+06,-70.5097
2.08069e+06,-71.0072
2.12404e+06,-71.8002
2.16739e+06,-68.6217
2.21074e+06,-68.4521
2.25408e+06,-68.1079
2.29743e+06,-68.0348
2.34078e+06,-68.8902
2.38413e+06,-68.0201
2.42748e+06,-69.5055
2.47082e+06,-70.0936
2.51417e+06,-72.0502
2.55752e+06,-71.4263
2.60087e+06,-70.2235
2.64421e+06,-70.6061
2.68756e+06,-70.5282
2.73091e+06,-71.0064
2.77426e+06,-69.3006
2.81761e+06,-68.9379
2.86095e+06,-71.0267
2.9043e+06,-71.1507
2.94765e+06,-70.7041
2.991e+06,-69.1999
3.03434e+06,-70.0377
3.07769e+06,-70.393
3.12104e+06,-70.5665
3.16439e+06,-68.6829
3.20774e+06,-70.4311
3.25108e+06,-69.9282
3.29443e+06,-69.3676
3.33778e+06,-68.9858
3.38113e+06,-69.7489
3.42447e+06,-68.8888
3.46782e+06,-69.5907
3.51117e+06,-68.3593
3.55452e+06,-69.0181
3.59787e+06,-69.1328
3.64121e+06,-69.5384
3.68456e+06,-67.7046
3.72791e+06,-67.3075
3.77126e+06,-68.4501
3.8146e+06,-68.3137
3.85795e+06,-67.8314
3.9013e+06,-68.3739
3.94465e+06,-68.1351
3.988e+06,-66.9275
4.03134e+06,-67.2272
4.07469e+06,-67.3473
4.11804e+06,-66.3932
4.16139e+06,-67.4011
4.20473e+06,-67.5374
4.24808e+06,-66.1906
4.29143e+06,-66.9143
4.33478e+06,-67.5098
4.37813e+06,-66.2613
4.42147e+06,-67.3873
4.46482e+06,-67.1605
4.50817e+06,-66.1082
4.55152e+06,-65.3175
4.59486e+06,-66.6617
4.63821e+06,-67.2663
4.68156e+06,-66.7994
4.72491e+06,-66.9908
4.76826e+06,-65.7538
4.8116e+06,-66.9778
4.85495e+06,-67.3597
4.8983e+06,-67.564
4.94165e+06,-66.1077
4.98499e+06,-65.9345
5.02834e+06,-66.9646
5.07169e+06,-65.5215
5.11504e+06,-65.8095
5.15839e+06,-66.5867
5.20173e+06,-65.4778
5.24508e+06,-66.3078
5.28843e+06,-65.9455
5.33178e+06,-66.1539
5.37513e+06,-65.3484
5.41847e+06,-65.5867
5.46182e+06,-65.9682
5.50517e+06,-65.7977
5.54852e+06,-65.7528
5.59186e+06,-66.2597
5.63521e+06,-65.9336
5.67856e+06,-65.9679
5.72191e+06,-64.7295
5.76526e+06,-65.4554
5.8086e+06,-65.1159
5.85195e+06,-64.2928
5.8953e+06,-65.1471
5.93865e+06,-65.5312
5.98199e+06,-65.0949
6.02534e+06,-64.64
6.06869e+06,-64.0499
6.11204e+06,-65.126
6.15539e+06,-64.6793
6.19873e+06,-64.7189
6.24208e+06,-64.4836
6.28543e+06,-65.2622
6.32878e+06,-65.0531
6.37212e+06,-63.6538
6.41547e+06,-65.0426
6.45882e+06,-63.7955
6.50217e+06,-64.4254
6.54552e+06,-65.422
6.58886e+06,-65.1881
6.63221e+06,-63.6359
6.67556e+06,-63.5834
6.71891e+06,-64.8788
6.76225e+06,-63.462
6.8056e+06,-64.2068
6.84895e+06,-64.4635
6.8923e+06,-64.377
6.93565e+06,-64.3674
6.97899e+06,-63.3422
7.02234e+06,-64.7278
7.06569e+06,-64.698
7.10904e+06,-65.0417
7.15238e+06,-64.9188
7.19573e+06,-64.1038
7.23908e+06,-64.7774
7.28243e+06,-63.6879
7.32578e+06,-63.3502
7.36912e+06,-63.2825
7.41247e+06,-62.823
7.45582e+06,-63.7496
7.49917e+06,-65.145
7.54251e+06,-64.3571
7.58586e+06,-64.4915
7.62921e+06,-63.2317
7.67256e+06,-64.8069
7.71591e+06,-63.4264
7.75925e+06,-64.5398
7.8026e+06,-63.5994
7.84595e+06,-62.7271
7.8893e+06,-63.5557
7.93264e+06,-63.9651
7.97599e+06,-64.7365
8.01934e+06,-63.6957
8.06269e+06,-65.0922
8.10604e+06,-64.7463
8.14938e+06,-63.9466
8.19273e+06,-65.1233
8.23608e+06,-64.9275
8.27943e+06,-64.4616
8.32277e+06,-62.3855
8.36612e+06,-64.746
8.40947e+06,-64.6764
8.45282e+06,-64.375
8.49617e+06,-65.0606
8.53951e+06,-64.6368
8.58286e+06,-65.1645
8.62621e+06,-65.0811
8.66956e+06,-63.7126
8.7129e+06,-64.9269
8.75625e+06,-63.8733
8.7996e+06,-64.9574
8.84295e+06,-64.2605
8.8863e+06,-64.3173
8.92964e+06,-63.2384
8.97299e+06,-65.7037
9.01634e+06,-65.0806
9.05969e+06,-65.5272
9.10303e+06,-65.2374
9.14638e+06,-64.906
9.18973e+06,-65.0908
9.23308e+06,-65.6589
9.27643e+06,-65.9632
9.31977e+06,-65.5706
9.36312e+06,-65.4291
9.40647e+06,-65.0491
9.44982e+06,-65.8039
9.49316e+06,-65.7141
9.53651e+06,-65.2474
9.57986e+06,-65.7812
9.62321e+06,-65.7699
9.66656e+06,-66.2544
9.7099e+06,-65.2789
9.75325e+06,-64.8951
9.7966e+06,-65.3427
9.83995e+06,-66.1833
9.88329e+06,-65.8259
9.92664e+06,-64.744
9.96999e+06,-66.1479
1.00133e+07,-65.4172
1.00567e+07,-65.7016
1.01e+07,-65.7571
1.01434e+07,-66.3962
1.01867e+07,-66.9051
1.02301e+07,-65.3939
1.02734e+07,-65.4259
1.03168e+07,-66.7143
1.03601e+07,-66.0515
1.04035e+07,-66.1327
1.04468e+07,-65.9815
1.04902e+07,-67.0056
1.05335e+07,-65.9693
1.05769e+07,-65.5539
1.06202e+07,-66.2607
1.06636e+07,-65.6524
1.07069e+07,-65.5748
1.07503e+07,-66.3312
1.07936e+07,-65.9443
1.08369e+07,-65.2082
1.08803e+07,-66.5363
1.09236e+07,-66.487
1.0967e+07,-65.3452
1.10103e+07,-64.7756
1.10537e+07,-66.7712
1.1097e+07,-65.8848
1.11404e+07,-65.9301
1.11837e+07,-66.0682
1.12271e+07,-67.4651
1.12704e+07,-66.3032
1.13138e+07,-67.3964
1.13571e+07,-66.4471
1.14005e+07,-67.546
1.14438e+07,-66.6181
1.14872e+07,-66.655
1.15305e+07,-66.9974
1.15739e+07,-65.6451
1.16172e+07,-67.2996
1.16606e+07,-66.2405
1.17039e+07,-65.5889
1.17472e+07,-66.7657
1.17906e+07,-65.902
1.18339e+07,-65.9017
1.18773e+07,-67.2574
1.19206e+07,-66.7769
1.1964e+07,-64.4729
1.20073e+07,-67.3912
1.20507e+07,-66.8208
1.2094e+07,-66.8585
1.21374e+07,-66.3281
1.21807e+07,-66.2213
1.22241e+07,-66.9801
1.22674e+07,-66.3345
1.23108e+07,-68.0345
1.23541e+07,-66.7439
1.23975e+07,-67.7098
1.24408e+07,-68.0861
1.24842e+07,-67.785
1.25275e+07,-67.8356
1.25709e+07,-65.8396
1.26142e+07,-67.1805
1.26576e+07,-65.9137
1.27009e+07,-67.3955
1.27442e+07,-67.3229
1.27876e+07,-67.9368
1.28309e+07,-67.6907
1.28743e+07,-45.3705
1.29176e+07,-67.4105
1.2961e+07,-67.9273
1.30043e+07,-68.171
1.30477e+07,-66.2378
1.3091e+07,-67.9266
1.31344e+07,-67.0447
1.31777e+07,-67.2646
1.32211e+07,-67.4008
1.32644e+07,-65.485
1.33078e+07,-67.3439
1.33511e+07,-68.5576
1.33945e+07,-66.8438
1.34378e+07,-67.4727
1.34812e+07,-68.4012
1.35245e+07,-67.383
1.35679e+07,-67.967
1.36112e+07,-66.2702
1.36546e+07,-67.9838
1.36979e+07,-67.6193
1.37412e+07,-67.1116
1.37846e+07,-67.6855
1.38279e+07,-66.5726
1.38713e+07,-67.033
1.39146e+07,-67.2845
1.3958e+07,-67.5107
1.40013e+07,-67.9647
1.40447e+07,-66.8327
1.4088e+07,-67.6755
1.41314e+07,-67.9553
1.41747e+07,-67.8522
1.42181e+07,-67.852
1.42614e+07,-67.4601
1.43048e+07,-66.0076
1.43481e+07,-67.9887
1.43915e+07,-67.5577
1.44348e+07,-68.561
1.44782e+07,-67.3456
1.45215e+07,-68.0051
1.45649e+07,-67.321
1.46082e+07,-68.7376
1.46516e+07,-68.1004
1.46949e+07,-67.7815
1.47382e+07,-67.4738
1.47816e+07,-68.0734
1.48249e+07,-67.6715
1.48683e+07,-68.1344
1.49116e+07,-67.9597
1.4955e+07,-67.6959
1.49983e+07,-67.8733
1.50417e+07,-68.072
1.5085e+07,-68.3563
1.51284e+07,-68.32
1.51717e+07,-69.0127
1.52151e+07,-67.3577
1.52584e+07,-69.1696
1.53018e+07,-67.5281
1.53451e+07,-68.5007
1.53885e+07,-68.0614
1.54318e+07,-68.3003
1.54752e+07,-68.714
1.55185e+07,-68.1662
1.55619e+07,-68.3266
1.56052e+07,-68.9327
1.56485e+07,-68.9132
1.56919e+07,-66.9921
1.57352e+07,-68.0682
1.57786e+07,-68.8166
1.58219e+07,-69.0385
1.58653e+07,-68.4795
1.59086e+07,-69.0185
1.5952e+07,-68.8635
1.59953e+07,-69.0083
1.60387e+07,-66.4147
1.6082e+07,-68.882
1.61254e+07,-68.4965
1.61687e+07,-68.92
1.62121e+07,-68.607
1.62554e+07,-68.6161
1.62988e+07,-69.4773
1.63421e+07,-68.2149
1.63855e+07,-67.9001
1.64288e+07,-69.0843
1.64722e+07,-68.8319
1.65155e+07,-67.7631
1.65589e+07,-69.8009
1.66022e+07,-67.7627
1.66455e+07,-69.3022
1.66889e+07,-68.985
1.67322e+07,-68.8881
1.67756e+07,-68.7637
1.68189e+07,-68.5851
1.68623e+07,-69.0524
1.69056e+07,-68.1322
1.6949e+07,-69.6295
1.69923e+07,-68.9156
1.70357e+07,-67.2756
1.7079e+07,-68.5466
1.71224e+07,-68.8667
1.71657e+07,-68.273
1.72091e+07,-69.4416
1.72524e+07,-69.2186
1.72958e+07,-69.2886
1.73391e+07,-68.9912
1.73825e+07,-68.9231
1.74258e+07,-69.2778
1.74692e+07,-68.4617
1.75125e+07,-69.5639
1.75559e+07,-69.1176
1.75992e+07,-69.553
1.76425e+07,-67.859
1.76859e+07,-67.0123
1.77292e+07,-69.5731
1.77726e+07,-68.3779
1.78159e+07,-68.9984
1.78593e+07,-68.2245
1.79026e+07,-68.5422
1.7946e+07,-68.1265
1.79893e+07,-69.0758
1.80327e+07,-69.2645
1.8076e+07,-68.331
1.81194e+07,-68.4949
1.81627e+07,-69.3547
1.82061e+07,-68.8513
1.82494e+07,-69.1932
1.82928e+07,-68.16
1.83361e+07,-68.4204
1.83795e+07,-67.5114
1.84228e+07,-68.4656
1.84662e+07,-68.745
1.85095e+07,-68.6319
1.85529e+07,-68.132
1.85962e+07,-69.3727
1.86395e+07,-69.2211
1.86829e+07,-67.7176
1.87262e+07,-69.3924
1.87696e+07,-68.1044
1.88129e+07,-68.6209
1.88563e+07,-67.9211
1.88996e+07,-68.7332
1.8943e+07,-68.5365
1.89863e+07,-68.7612
1.90297e+07,-68.1118
1.9073e+07,-68.2001
1.91164e+07,-68.6943
1.91597e+07,-68.591
1.92031e+07,-68.9132
1.92464e+07,-68.3066
1.92898e+07,-67.9966
1.93331e+07,-68.1721
1.93765e+07,-68.8066
1.94198e+07,-68.4786
1.94632e+07,-67.3508
1.95065e+07,-67.391
1.95498e+07,-68.5517
1.95932e+07,-68.6541
1.96365e+07,-68.9885
1.96799e+07,-68.551
1.97232e+07,-69.2553
1.97666e+07,-68.2053
1.98099e+07,-68.5503
1.98533e+07,-68.5131
1.98966e+07,-68.6431
1.994e+07,-67.4783
1.99833e+07,-68.3659
2.00267e+07,-68.204
2.007e+07,-68.6705
2.01134e+07,-68.4567
2.01567e+07,-68.5767
2.02001e+07,-68.0444
2.02434e+07,-67.51
2.02868e+07,-69.0443
2.03301e+07,-67.0609
2.03735e+07,-68.4834
2.04168e+07,-67.4847
2.04602e+07,-68.1138
2.05035e+07,-67.2498
2.05468e+07,-68.2916
2.05902e+07,-68.9747
2.06335e+07,-68.078
2.06769e+07,-68.3908
2.07202e+07,-68.0426
2.07636e+07,-69.1811
2.08069e+07,-68.7339
2.08503e+07,-66.9967
2.08936e+07,-68.3265
2.0937e+07,-67.8515
2.09803e+07,-68.1031
2.10237e+07,-68.2004
2.1067e+07,-67.3926
2.11104e+07,-68.7898
2.11537e+07,-67.8165
2.11971e+07,-67.5892
2.12404e+07,-66.9412
2.12838e+07,-68.307
2.13271e+07,-67.9881
2.13705e+07,-68.2797
2.14138e+07,-67.7477
2.14572e+07,-68.1014
2.15005e+07,-67.4645
2.15438e+07,-67.238
2.15872e+07,-66.8632
2.16305e+07,-68.0306
2.16739e+07,-68.9708
2.17172e+07,-68.189
2.17606e+07,-68.2514
2.18039e+07,-68.0387
2.18473e+07,-68.5799
2.18906e+07,-68.787
2.1934e+07,-68.3862
2.19773e+07,-68.1791
2.20207e+07,-68.0379
2.2064e+07,-69.3986
2.21074e+07,-68.3674
2.21507e+07,-68.7101
2.21941e+07,-68.9301
2.22374e+07,-68.0109
2.22808e+07,-68.843
2.23241e+07,-68.3666
2.23675e+07,-67.4531
2.24108e+07,-68.9196
2.24542e+07,-66.9523
2.24975e+07,-67.6429
2.25408e+07,-68.4114
2.25842e+07,-68.4754
2.26275e+07,-68.0972
2.26709e+07,-68.3563
2.27142e+07,-68.2032
2.27576e+07,-69.144
2.28009e+07,-69.124
2.28443e+07,-67.7341
2.28876e+07,-66.4921
2.2931e+07,-68.2831
2.29743e+07,-68.8886
2.30177e+07,-68.4831
2.3061e+07,-69.0539
2.31044e+07,-68.1043
2.31477e+07,-68.5288
2.31911e+07,-68.575
2.32344e+07,-69.3332
2.32778e+07,-68.6214
2.33211e+07,-67.9375
2.33645e+07,-67.1284
2.34078e+07,-68.9354
2.34512e+07,-67.7319
2.34945e+07,-68.3715
2.35378e+07,-68.7906
2.35812e+07,-67.6893
2.36245e+07,-67.3591
2.36679e+07,-67.7058
2.37112e+07,-67.6552
2.37546e+07,-67.072
2.37979e+07,-68.6571
2.38413e+07,-68.0928
2.38846e+07,-68.1901
2.3928e+07,-68.8083
2.39713e+07,-66.3141
2.40147e+07,-67.6207
2.4058e+07,-68.6844
2.41014e+07,-68.4516
2.41447e+07,-68.4606
2.41881e+07,-68.7407
2.42314e+07,-69.099
2.42748e+07,-68.2872
2.43181e+07,-67.2921
2.43615e+07,-67.5612
2.44048e+07,-67.6695
2.44481e+07,-69.2078
2.44915e+07,-67.762
2.45348e+07,-67.8129
2.45782e+07,-67.9938
2.46215e+07,-68.8634
2.46649e+07,-68.4956
2.47082e+07,-67.9499
2.47516e+07,-67.6935
2.47949e+07,-68.6253
2.48383e+07,-68.1068
2.48816e+07,-68.7192
2.4925e+07,-67.0756
2.49683e+07,-67.9489
2.50117e+07,-69.0273
2.5055e+07,-69.1956
2.50984e+07,-68.939
2.51417e+07,-68.2571
2.51851e+07,-69.1651
2.52284e+07,-68.0966
2.52718e+07,-68.2029
2.53151e+07,-67.683
2.53585e+07,-67.7673
2.54018e+07,-68.6984
2.54451e+07,-67.8781
2.54885e+07,-67.3767
2.55318e+07,-67.3038
2.55752e+07,-67.6989
2.56185e+07,-68.0688
2.56619e+07,-67.6986
2.57052e+07,-67.1833
2.57486e+07,-67.2869
2.57919e+07,-66.8787
2.58353e+07,-67.0723
2.58786e+07,-68.436
2.5922e+07,-68.2095
2.59653e+07,-67.6137
2.60087e+07,-65.9276
2.6052e+07,-67.9711
2.60954e+07,-67.7902
2.61387e+07,-67.1817
2.61821e+07,-67.8669
2.62254e+07,-67.3497
2.62688e+07,-67.253
2.63121e+07,-66.6798
2.63555e+07,-65.9677
2.63988e+07,-66.7926
2.64421e+07,-66.9302
2.64855e+07,-66.191
2.65288e+07,-65.1254
2.65722e+07,-66.2833
2.66155e+07,-67.1325
2.66589e+07,-67.6698
2.67022e+07,-67.6361
2.67456e+07,-66.0425
2.67889e+07,-67.4782
2.68323e+07,-66.6181
2.68756e+07,-66.7153
2.6919e+07,-67.4122
2.69623e+07,-66.9206
2.70057e+07,-66.3681
2.7049e+07,-64.7374
2.70924e+07,-66.5431
2.71357e+07,-66.3387
2.71791e+07,-66.3458
2.72224e+07,-66.0548
2.72658e+07,-65.9506
2.73091e+07,-67.2653
2.73525e+07,-66.2519
2.73958e+07,-65.8883
2.74391e+07,-65.4608
2.74825e+07,-66.6606
2.75258e+07,-67.0116
2.75692e+07,-67.0114
2.76125e+07,-66.3514
2.76559e+07,-67.0423
2.76992e+07,-66.9334
2.77426e+07,-67.0342
2.77859e+07,-66.151
2.78293e+07,-65.805
2.78726e+07,-65.6836
2.7916e+07,-67.0884
2.79593e+07,-65.9481
2.80027e+07,-65.1956
2.8046e+07,-66.4151
2.80894e+07,-64.6264
2.81327e+07,-65.4387
2.81761e+07,-66.6805
2.82194e+07,-66.2845
2.82628e+07,-65.9885
2.83061e+07,-65.9262
2.83494e+07,-66.4651
2.83928e+07,-65.803
2.84361e+07,-64.2486
2.84795e+07,-66.1344
2.85228e+07,-65.542
2.85662e+07,-65.3789
2.86095e+07,-66.2688
2.86529e+07,-65.6275
2.86962e+07,-66.183
2.87396e+07,-65.4106
2.87829e+07,-65.9314
2.88263e+07,-65.1926
2.88696e+07,-65.9104
2.8913e+07,-65.6398
2.89563e+07,-66.2247
2.89997e+07,-66.1325
2.9043e+07,-64.8267
2.90864e+07,-63.6705
2.91297e+07,-65.1915
2.91731e+07,-64.9237
2.92164e+07,-65.9229
2.92598e+07,-66.1457
2.93031e+07,-64.9417
2.93464e+07,-65.732
2.93898e+07,-65.8743
2.94331e+07,-65.806
2.94765e+07,-66.1167
2.95198e+07,-65.5978
2.95632e+07,-65.6309
2.96065e+07,-66.0044
2.96499e+07,-66.0391
2.96932e+07,-65.9418
2.97366e+07,-65.1013
2.97799e+07,-65.8115
2.98233e+07,-64.255
2.98666e+07,-65.5635
2.991e+07,-65.1132
2.99533e+07,-66.3575
2.99967e+07,-65.9961
3.004e+07,-65.9682
3.00834e+07,-66.0584
3.01267e+07,-64.7684
3.01701e+07,-65.3152
3.02134e+07,-65.0684
3.02568e+07,-66.4363
3.03001e+07,-65.9259
3.03434e+07,-65.9671
3.03868e+07,-66.2124
3.04301e+07,-65.7618
3.04735e+07,-65.7346
3.05168e+07,-65.7953
3.05602e+07,-65.6007
3.06035e+07,-65.6005
3.06469e+07,-65.1987
3.06902e+07,-65.0169
3.07336e+07,-66.2397
3.07769e+07,-65.029
3.08203e+07,-65.4421
3.08636e+07,-66.1258
3.0907e+07,-64.3366
3.09503e+07,-66.1537
3.09937e+07,-63.9824
3.1037e+07,-63.7541
3.10804e+07,-64.6156
3.11237e+07,-64.5154
3.11671e+07,-65.0899
3.12104e+07,-65.0212
3.12538e+07,-64.2555
3.12971e+07,-64.2667
3.13404e+07,-64.2155
3.13838e+07,-64.4387
3.14271e+07,-65.8328
3.14705e+07,-66.0674
3.15138e+07,-65.6105
3.15572e+07,-64.9767
3.16005e+07,-65.839
3.16439e+07,-64.7268
3.16872e+07,-64.6194
3.17306e+07,-65.6364
3.17739e+07,-64.6013
3.18173e+07,-65.6895
3.18606e+07,-65.5828
3.1904e+07,-65.4447
3.19473e+07,-65.1751
3.19907e+07,-65.2574
3.2034e+07,-65.2956
3.20774e+07,-64.8339
3.21207e+07,-64.8642
3.21641e+07,-64.8824
3.22074e+07,-64.3607
3.22508e+07,-65.3656
3.22941e+07,-65.6677
3.23374e+07,-64.4644
3.23808e+07,-64.949
3.24241e+07,-65.5543
3.24675e+07,-64.7179
3.25108e+07,-64.0933
3.25542e+07,-64.8626
3.25975e+07,-64.893
3.26409e+07,-64.104
3.26842e+07,-64.7471
3.27276e+07,-64.8073
3.27709e+07,-65.4873
3.28143e+07,-64.6927
3.28576e+07,-64.8008
3.2901e+07,-64.1816
3.29443e+07,-64.7824
3.29877e+07,-64.3982
3.3031e+07,-66.2029
3.30744e+07,-63.997
3.31177e+07,-66.0825
3.31611e+07,-65.1455
3.32044e+07,-65.8879
3.32477e+07,-65.0512
3.32911e+07,-66.1241
3.33344e+07,-66.0537
3.33778e+07,-64.5015
3.34211e+07,-64.259
3.34645e+07,-64.6665
3.35078e+07,-65.9904
3.35512e+07,-65.2838
3.35945e+07,-65.5831
3.36379e+07,-66.0247
3.36812e+07,-66.0176
3.37246e+07,-66.2719
3.37679e+07,-65.7498
3.38113e+07,-65.4118
3.38546e+07,-66.6451
3.3898e+07,-65.6619
3.39413e+07,-65.7694
3.39847e+07,-65.6884
3.4028e+07,-65.9746
3.40714e+07,-66.6593
3.41147e+07,-66.1919
3.41581e+07,-66.1704
3.42014e+07,-66.2917
3.42447e+07,-66.3637
3.42881e+07,-65.8566
3.43314e+07,-65.1287
3.43748e+07,-66.2767
3.44181e+07,-66.7485
3.44615e+07,-66.5832
3.45048e+07,-66.2333
3.45482e+07,-66.6801
3.45915e+07,-66.0352
3.46349e+07,-67.2229
3.46782e+07,-66.5676
3.47216e+07,-66.5823
3.47649e+07,-66.6343
3.48083e+07,-67.6404
3.48516e+07,-66.747
3.4895e+07,-67.0869
3.49383e+07,-66.2675
3.49817e+07,-67.3995
3.5025e+07,-67.0393
3.50684e+07,-67.1893
3.51117e+07,-67.4647
3.51551e+07,-66.7081
3.51984e+07,-67.0622
3.52417e+07,-66.8447
3.52851e+07,-67.4476
3.53284e+07,-67.723
3.53718e+07,-67.8338
3.54151e+07,-67.0771
3.54585e+07,-66.4615
3.55018e+07,-67.2037
3.55452e+07,-67.816
3.55885e+07,-67.3566
3.56319e+07,-67.0764
3.56752e+07,-68.1923
3.57186e+07,-67.9886
3.57619e+07,-67.275
3.58053e+07,-67.2267
3.58486e+07,-68.2636
3.5892e+07,-68.4736
3.59353e+07,-66.4524
3.59787e+07,-68.0667
3.6022e+07,-68.6791
3.60654e+07,-68.04
3.61087e+07,-68.2898
3.61521e+07,-68.1548
3.61954e+07,-67.7624
3.62387e+07,-68.8795
3.62821e+07,-66.599
3.63254e+07,-68.0214
3.63688e+07,-66.9719
3.64121e+07,-68.3068
3.64555e+07,-67.2967
3.64988e+07,-67.3452
3.65422e+07,-67.7867
3.65855e+07,-67.9331
3.66289e+07,-67.8378
3.66722e+07,-67.5418
3.67156e+07,-68.1975
3.67589e+07,-67.0095
3.68023e+07,-68.2421
3.68456e+07,-67.9061
3.6889e+07,-67.2067
3.69323e+07,-68.7615
3.69757e+07,-68.396
3.7019e+07,-68.8767
3.70624e+07,-68.2502
3.71057e+07,-68.581
3.7149e+07,-68.3405
3.71924e+07,-68.1779
3.72357e+07,-67.4242
3.72791e+07,-69.2017
3.73224e+07,-65.9213
3.73658e+07,-68.9632
3.74091e+07,-66.7226
3.74525e+07,-69.1509
3.74958e+07,-66.4248
3.75392e+07,-68.1498
3.75825e+07,-66.9987
3.76259e+07,-68.2662
3.76692e+07,-66.882
3.77126e+07,-69.0604
3.77559e+07,-66.0869
3.77993e+07,-69.3624
3.78426e+07,-66.6532
3.7886e+07,-68.9711
3.79293e+07,-66.6304
3.79727e+07,-68.9414
3.8016e+07,-68.3831
3.80594e+07,-68.2016
3.81027e+07,-68.5213
3.8146e+07,-69.6214
3.81894e+07,-66.8417
3.82327e+07,-70.0433
3.82761e+07,-68.5861
3.83194e+07,-68.6519
3.83628e+07,-68.437
3.84061e+07,-69.3091
3.84495e+07,-67.1057
3.84928e+07,-69.9211
3.85362e+07,-69.1972
3.85795e+07,-69.7154
3.86229e+07,-68.4453
3.86662e+07,-69.6938
3.87096e+07,-68.8998
3.87529e+07,-69.9971
3.87963e+07,-67.4514
3.88396e+07,-69.2872
3.8883e+07,-69.9856
3.89263e+07,-69.8434
3.89697e+07,-70.1748
3.9013e+07,-70.5781
3.90564e+07,-69.016
3.90997e+07,-70.6847
3.9143e+07,-69.5546
3.91864e+07,-70.0398
3.92297e+07,-69.7774
3.92731e+07,-68.6863
3.93164e+07,-69.7664
3.93598e+07,-70.8162
3.94031e+07,-70.2638
3.94465e+07,-70.6596
3.94898e+07,-69.6695
3.95332e+07,-70.6593
3.95765e+07,-70.3778
3.96199e+07,-70.7668
3.96632e+07,-69.9939
3.97066e+07,-70.9125
3.97499e+07,-70.7183
3.97933e+07,-71.7486
3.98366e+07,-71.3395
3.988e+07,-71.1104
3.99233e+07,-70.7658
3.99667e+07,-70.9362
4.001e+07,-71.2364
4.00534e+07,-69.753
4.00967e+07,-71.1853
4.014e+07,-71.1852
4.01834e+07,-71.442
4.02267e+07,-69.4672
4.02701e+07,-70.468
4.03134e+07,-71.801
4.03568e+07,-71.197
4.04001e+07,-70.1809
4.04435e+07,-70.656
4.04868e+07,-71.7327
4.05302e+07,-71.2856
4.05735e+07,-70.6794
4.06169e+07,-70.4551
4.06602e+07,-70.715
4.07036e+07,-71.8268
4.07469e+07,-71.3105
4.07903e+07,-71.8538
4.08336e+07,-71.0945
4.0877e+07,-71.8672
4.09203e+07,-71.157
4.09637e+07,-71.3355
4.1007e+07,-71.8804
4.10504e+07,-71.2199
4.10937e+07,-71.9076
4.1137e+07,-71.0683
4.11804e+07,-71.7032
4.12237e+07,-71.8796
4.12671e+07,-72.0039
4.13104e+07,-72.1582
4.13538e+07,-73.0214
4.13971e+07,-71.7564
4.14405e+07,-72.1294
4.14838e+07,-72.7285
4.15272e+07,-72.8197
4.15705e+07,-72.6679
4.16139e+07,-71.3074
4.16572e+07,-72.896
4.17006e+07,-72.1568
4.17439e+07,-71.8367
4.17873e+07,-72.0159
4.18306e+07,-71.281
4.1874e+07,-72.7575
4.19173e+07,-72.6217
4.19607e+07,-72.0153
4.2004e+07,-72.1557
4.20473e+07,-72.5616
4.20907e+07,-72.7264
4.2134e+07,-73.0186
4.21774e+07,-72.2262
4.22207e+07,-72.3267
4.22641e+07,-72.9557
4.23074e+07,-72.6653
4.23508e+07,-72.2399
4.23941e+07,-72.62
4.24375e+07,-72.9396
4.24808e+07,-72.7705
4.25242e+07,-72.9238
4.25675e+07,-72.3689
4.26109e+07,-72.1819
4.26542e+07,-73.0481
4.26976e+07,-72.8614
4.27409e+07,-72.8459
4.27843e+07,-72.1105
4.28276e+07,-72.815
4.2871e+07,-72.7387
4.29143e+07,-72.4993
4.29577e+07,-72.5139
4.3001e+07,-72.499
4.30443e+07,-72.0114
4.30877e+07,-72.4253
4.3131e+07,-72.053
4.31744e+07,-72.968
4.32177e+07,-72.7678
4.32611e+07,-72.5573
4.33044e+07,-72.8593
4.33478e+07,-70.8872
4.33911e+07,-73.236
4.34345e+07,-73.061
4.34778e+07,-72.4973
4.35212e+07,-70.9234
4.35645e+07,-71.5745
4.36079e+07,-72.5264
4.36512e+07,-73.0602
4.36946e+07,-73.155
4.37379e+07,-72.5853
4.37813e+07,-71.843
4.38246e+07,-72.8114
4.3868e+07,-72.2201
4.39113e+07,-73.2502
4.39547e+07,-71.4939
4.3998e+07,-71.6796
4.40413e+07,-72.9805
4.40847e+07,-72.4217
4.4128e+07,-71.2855
4.41714e+07,-72.7644
4.42147e+07,-71.8552
4.42581e+07,-73.2812
4.43014e+07,-72.4502
4.43448e+07,-72.613
4.43881e+07,-72.2469
4.44315e+07,-71.4137
4.44748e+07,-71.6244
4.45182e+07,-73.5925
4.45615e+07,-71.992
4.46049e+07,-71.895
4.46482e+07,-70.6647
4.46916e+07,-72.567
4.47349e+07,-71.1181
4.47783e+07,-72.9467
4.48216e+07,-71.0801
4.4865e+07,-73.0874
4.49083e+07,-72.0887
4.49517e+07,-73.2464
4.4995e+07,-70.3237
4.50383e+07,-73.5074
4.50817e+07,-71.6892
4.5125e+07,-72.3742
4.51684e+07,-71.6219
4.52117e+07,-73.2777
4.52551e+07,-71.2048
4.52984e+07,-73.1492
4.53418e+07,-69.5955
4.53851e+07,-72.5943
4.54285e+07,-70.2992
4.54718e+07,-72.1858
4.55152e+07,-70.6496
4.55585e+07,-73.9475
4.56019e+07,-70.3215
4.56452e+07,-73.3736
4.56886e+07,-71.0021
4.57319e+07,-73.6722
4.57753e+07,-70.7447
4.58186e+07,-73.5045
4.5862e+07,-70.4014
4.59053e+07,-73.7736
4.59486e+07,-70.5414
4.5992e+07,-73.1308
4.60353e+07,-71.2147
4.60787e+07,-71.5389
4.6122e+07,-70.8649
4.61654e+07,-73.6201
4.62087e+07,-70.5995
4.62521e+07,-73.3225
4.62954e+07,-70.4463
4.63388e+07,-73.0979
4.63821e+07,-70.9377
4.64255e+07,-73.927
4.64688e+07,-70.7543
4.65122e+07,-73.0185
4.65555e+07,-70.4571
4.65989e+07,-71.6703
4.66422e+07,-70.387
4.66856e+07,-73.4025
4.67289e+07,-70.6453
4.67723e+07,-72.5744
4.68156e+07,-69.7501
4.6859e+07,-73.2879
4.69023e+07,-70.1575
4.69456e+07,-73.0799
4.6989e+07,-70.1797
4.70323e+07,-72.4993
4.70757e+07,-71.3781
4.7119e+07,-72.2802
4.71624e+07,-71.326
4.72057e+07,-72.9379
4.72491e+07,-71.7083
4.72924e+07,-72.8603
4.73358e+07,-71.2483
4.73791e+07,-72.1505
4.74225e+07,-72.1079
4.74658e+07,-72.4977
4.75092e+07,-71.3248
4.75525e+07,-72.7522
4.75959e+07,-70.7865
4.76392e+07,-73.3501
4.76826e+07,-71.5464
4.77259e+07,-73.1246
4.77693e+07,-71.5461
4.78126e+07,-72.321
4.7856e+07,-72.008
4.78993e+07,-73.6813
4.79426e+07,-71.4271
4.7986e+07,-72.9663
4.80293e+07,-71.233
4.80727e+07,-73.0916
4.8116e+07,-72.7502
4.81594e+07,-73.6298
4.82027e+07,-72.2188
4.82461e+07,-73.4133
4.82894e+07,-72.934
4.83328e+07,-73.6123
4.83761e+07,-72.6585
4.84195e+07,-72.5387
4.84628e+07,-72.7186
4.85062e+07,-72.1749
4.85495e+07,-72.4938
4.85929e+07,-73.2494
4.86362e+07,-72.464
4.86796e+07,-73.5441
4.87229e+07,-72.0891
4.87663e+07,-72.8704
4.88096e+07,-72.7173
4.8853e+07,-73.9881
4.88963e+07,-72.8391
4.89396e+07,-73.4602
4.8983e+07,-73.1359
4.90263e+07,-75.1499
4.90697e+07,-73.4928
4.9113e+07,-73.5259
4.91564e+07,-72.0034
4.91997e+07,-73.6597
4.92431e+07,-73.6935
4.92864e+07,-73.3116
4.93298e+07,-73.6931
4.93731e+07,-73.7782
4.94165e+07,-73.2464
4.94598e+07,-73.3925
4.95032e+07,-74.344
4.95465e+07,-74.2348
4.95899e+07,-73.8808
4.96332e+07,-72.1994
4.96766e+07,-71.4864
4.97199e+07,-74.091
4.97633e+07,-73.181
4.98066e+07,-72.7898
4.98499e+07,-73.6237
4.98933e+07,-72.1131
4.99366e+07,-72.82
4.998e+07,-71.7662
5.00233e+07,-73.506
5.00667e+07,-71.8341
5.011e+07,-72.2983
5.01534e+07,-71.8476
5.01967e+07,-72.8653
5.02401e+07,-72.112
5.02834e+07,-72.1544
5.03268e+07,-71.6974
5.03701e+07,-73.5215
5.04135e+07,-71.3793
5.04568e+07,-72.1255
5.05002e+07,-71.4443
5.05435e+07,-72.8951
5.05869e+07,-70.5722
5.06302e+07,-72.6807
5.06736e+07,-71.4568
5.07169e+07,-73.9817
5.07603e+07,-71.4565
5.08036e+07,-71.9144
5.08469e+07,-71.0587
5.08903e+07,-72.8169
5.09336e+07,-71.0836
5.0977e+07,-71.8862
5.10203e+07,-71.1337
5.10637e+07,-72.6492
5.1107e+07,-70.535
5.11504e+07,-73.2407
5.11937e+07,-70.0863
5.12371e+07,-72.9706
5.12804e+07,-69.9195
5.13238e+07,-72.6634
5.13671e+07,-71.12
5.14105e+07,-72.0659
5.14538e+07,-70.6887
5.14972e+07,-72.5878
5.15405e+07,-71.4017
5.15839e+07,-72.9695
5.16272e+07,-71.5993
5.16706e+07,-72.8298
5.17139e+07,-71.7742
5.17573e+07,-71.8561
5.18006e+07,-71.4009
5.18439e+07,-71.9944
5.18873e+07,-71.9803
5.19306e+07,-71.7328
5.1974e+07,-72.249
5.20173e+07,-72.7217
5.20607e+07,-71.6112
5.2104e+07,-72.5263
5.21474e+07,-72.3207
5.21907e+07,-72.0916
5.22341e+07,-71.3086
5.22774e+07,-71.4779
5.23208e+07,-70.2182
5.23641e+07,-71.2696
5.24075e+07,-71.5039
5.24508e+07,-71.8265
5.24942e+07,-71.4641
5.25375e+07,-72.72
5.25809e+07,-71.992
5.26242e+07,-71.5694
5.26676e+07,-71.8395
5.27109e+07,-73.0286
5.27543e+07,-71.1029
5.27976e+07,-72.2608
5.28409e+07,-70.8786
5.28843e+07,-69.8268
5.29276e+07,-71.8937
5.2971e+07,-72.3471
5.30143e+07,-69.9249
5.30577e+07,-71.9905
5.3101e+07,-70.8901
5.31444e+07,-73.043
5.31877e+07,-70.6951
5.32311e+07,-72.2883
5.32744e+07,-71.1391
5.33178e+07,-72.2591
5.33611e+07,-70.9386
5.34045e+07,-72.6266
5.34478e+07,-69.9235
5.34912e+07,-71.1131
5.35345e+07,-69.4519
5.35779e+07,-72.793
5.36212e+07,-70.6817
5.36646e+07,-72.7468
5.37079e+07,-71.0998
5.37513e+07,-73.041
5.37946e+07,-71.3944
5.38379e+07,-72.6102
5.38813e+07,-70.999
5.39246e+07,-72.4024
5.3968e+07,-71.1116
5.40113e+07,-72.3875
5.40547e+07,-69.8667
5.4098e+07,-70.3386
5.41414e+07,-71.5247
5.41847e+07,-72.1703
5.42281e+07,-71.0479
5.42714e+07,-73.1345
5.43148e+07,-71.1484
5.43581e+07,-73.1821
5.44015e+07,-72.1128
5.44448e+07,-72.6233
5.44882e+07,-71.6975
5.45315e+07,-72.638
5.45749e+07,-72.6229
5.46182e+07,-72.4148
5.46616e+07,-71.8057
5.47049e+07,-73.149
5.47482e+07,-71.9711
5.47916e+07,-72.928
5.48349e+07,-71.4697
5.48783e+07,-73.3749
5.49216e+07,-71.2357
5.4965e+07,-72.9431
5.50083e+07,-72.7121
5.50517e+07,-73.5065
5.5095e+07,-72.6513
5.51384e+07,-72.4868
5.51817e+07,-72.6209
5.52251e+07,-73.0048
5.52684e+07,-72.6357
5.53118e+07,-70.9695
5.53551e+07,-72.5158
5.53985e+07,-72.726
5.54418e+07,-72.8639
5.54852e+07,-73.373
5.55285e+07,-73.0511
5.55719e+07,-73.4716
5.56152e+07,-72.5447
5.56586e+07,-72.9877
5.57019e+07,-70.9558
5.57452e+07,-73.7404
5.57886e+07,-73.7061
5.58319e+07,-72.6339
5.58753e+07,-72.909
5.59186e+07,-71.7743
5.5962e+07,-73.8429
5.60053e+07,-74.0175
5.60487e+07,-73.241
5.6092e+07,-73.2732
5.61354e+07,-74.0702
5.61787e+07,-73.9117
5.62221e+07,-74.3406
5.62654e+07,-73.0172
5.63088e+07,-73.9113
5.63521e+07,-72.923
5.63955e+07,-73.321
5.64388e+07,-73.9458
5.64822e+07,-73.3534
5.65255e+07,-74.3396
5.65689e+07,-72.8603
5.66122e+07,-74.0156
5.66556e+07,-75.1049
5.66989e+07,-73.9275
5.67422e+07,-74.3206
5.67856e+07,-74.1934
5.68289e+07,-72.8132
5.68723e+07,-74.7321
5.69156e+07,-73.3031
5.6959e+07,-74.3016
5.70023e+07,-73.9791
5.70457e+07,-74.4858
5.7089e+07,-74.9253
5.71324e+07,-74.4856
5.71757e+07,-75.0237
5.72191e+07,-74.7311
5.72624e+07,-75.1032
5.73058e+07,-74.5977
5.73491e+07,-73.8908
5.73925e+07,-74.7884
5.74358e+07,-73.978
5.74792e+07,-75.2643
5.75225e+07,-75.0031
5.75659e+07,-75.003
5.76092e+07,-74.5593
5.76526e+07,-74.3182
5.76959e+07,-74.9632
5.77392e+07,-75.4491
5.77826e+07,-75.6385
5.78259e+07,-75.1019
5.78693e+07,-74.3543
5.79126e+07,-75.4696
5.7956e+07,-73.717
5.79993e+07,-74.4093
5.80427e+07,-74.3172
5.8086e+07,-73.7509
5.81294e+07,-72.1159
5.81727e+07,-74.8252
5.82161e+07,-74.2078
5.82594e+07,-73.4806
5.83028e+07,-74.6142
5.83461e+07,-74.6141
5.83895e+07,-73.9933
5.84328e+07,-74.844
5.84762e+07,-74.1532
5.85195e+07,-74.4265
5.85629e+07,-73.784
5.86062e+07,-74.5946
5.86495e+07,-73.5798
5.86929e+07,-74.6703
5.87362e+07,-74.9018
5.87796e+07,-74.2426
5.88229e+07,-74.5564
5.88663e+07,-74.7464
5.89096e+07,-75.2201
5.8953e+07,-73.185
5.89963e+07,-74.0449
5.90397e+07,-74.7459
5.9083e+07,-73.3631
5.91264e+07,-73.5452
5.91697e+07,-73.663
5.92131e+07,-74.3511
5.92564e+07,-74.0798
5.92998e+07,-74.3325
5.93431e+07,-74.9199
5.93865e+07,-74.2231
5.94298e+07,-74.4987
5.94732e+07,-74.2591
5.95165e+07,-74.5735
5.95599e+07,-74.9982
5.96032e+07,-74.649
5.96465e+07,-73.6788
5.96899e+07,-74.1862
5.97332e+07,-74.4051
5.97766e+07,-74.7058
5.98199e+07,-74.0252
5.98633e+07,-74.5351
5.99066e+07,-74.4603
5.995e+07,-74.8598
5.99933e+07,-74.938
6.00367e+07,-74.8014
6.008e+07,-74.9771
6.01234e+07,-75.4642
6.01667e+07,-73.7802
6.02101e+07,-74.8787
6.02534e+07,-74.6285
6.02968e+07,-74.2571
6.03401e+07,-74.8007
6.03835e+07,-74.0593
6.04268e+07,-73.8313
6.04702e+07,-73.7451
6.05135e+07,-74.4961
6.05569e+07,-74.0058
6.06002e+07,-74.1301
6.06435e+07,-73.3593
6.06869e+07,-74.112
6.07302e+07,-75.2361
6.07736e+07,-74.2924
6.08169e+07,-74.8577
6.08603e+07,-74.3655
6.09036e+07,-75.1345
6.0947e+07,-74.6079
6.09903e+07,-74.8379
6.10337e+07,-72.3536
6.1077e+07,-74.0576
6.11204e+07,-75.4827
6.11637e+07,-74.5507
6.12071e+07,-75.673
6.12504e+07,-75.0936
6.12938e+07,-74.8761
6.13371e+07,-74.2003
6.13805e+07,-74.4381
6.14238e+07,-75.482
6.14672e+07,-73.5228
6.15105e+07,-75.0331
6.15539e+07,-75.0729
6.15972e+07,-74.1456
6.16405e+07,-75.4606
6.16839e+07,-74.5683
6.17272e+07,-74.7973
6.17706e+07,-73.6398
6.18139e+07,-73.7419
6.18573e+07,-73.5889
6.19006e+07,-75.4808
6.1944e+07,-75.8878
6.19873e+07,-76.3842
6.20307e+07,-73.9846
6.2074e+07,-74.9723
6.21174e+07,-75.3145
6.21607e+07,-74.8156
6.22041e+07,-74.8739
6.22474e+07,-75.2528
6.22908e+07,-75.564
6.23341e+07,-75.6917
6.23775e+07,-75.7561
6.24208e+07,-73.896
6.24642e+07,-75.0707
6.25075e+07,-75.3754
6.25509e+07,-75.4375
6.25942e+07,-75.2519
6.26375e+07,-74.491
6.26809e+07,-75.777
6.27242e+07,-75.4789
6.27676e+07,-74.9904
6.28109e+07,-75.354
6.28543e+07,-76.6653
6.28976e+07,-76.0852
6.2941e+07,-75.7981
6.29843e+07,-74.3604
6.30277e+07,-75.5622
6.3071e+07,-75.541
6.31144e+07,-75.951
6.31577e+07,-75.2506
6.32011e+07,-74.9499
6.32444e+07,-76.0619
6.32878e+07,-74.5081
6.33311e+07,-75.9064
6.33745e+07,-74.1055
6.34178e+07,-75.8842
6.34612e+07,-75.2703
6.35045e+07,-75.8185
6.35478e+07,-75.9943
6.35912e+07,-75.9278
6.36345e+07,-75.0878
6.36779e+07,-73.5677
6.37212e+07,-75.5395
6.37646e+07,-74.639
6.38079e+07,-74.4695
6.38513e+07,-75.9492
6.38946e+07,-75.0672
6.3938e+07,-75.1877
6.39813e+07,-74.4504
6.40247e+07,-75.4967
6.4068e+07,-75.6234
6.41114e+07,-74.0681
6.41547e+07,-75.6019
6.41981e+07,-75.7086
6.42414e+07,-74.8495
6.42848e+07,-75.7515
6.43281e+07,-75.3297
6.43715e+07,-75.0262
6.44148e+07,-73.7185
6.44582e+07,-73.6333
6.45015e+07,-75.3087
6.45448e+07,-75.1459
6.45882e+07,-75.7724
6.46315e+07,-74.8876
6.46749e+07,-75.4951
6.47182e+07,-75.474
6.47616e+07,-74.4858
6.48049e+07,-75.4321
6.48483e+07,-75.7286
6.48916e+07,-74.8284
6.4935e+07,-75.5365
6.49783e+07,-75.3487
6.50217e+07,-75.3486
6.5065e+07,-74.3922
6.51084e+07,-75.5151
6.51517e+07,-74.8084
6.51951e+07,-74.9254
6.52384e+07,-74.6735
6.52818e+07,-75.1441
6.53251e+07,-75.4517
6.53685e+07,-75.2249
6.54118e+07,-75.0237
6.54552e+07,-75.4932
6.54985e+07,-73.7158
6.55418e+07,-74.8075
6.55852e+07,-75.5139
6.56285e+07,-75.945
6.56719e+07,-74.6725
6.57152e+07,-73.6472
6.57586e+07,-73.9404
6.58019e+07,-73.9403
6.58453e+07,-72.0266
6.58886e+07,-75.4712
6.5932e+07,-75.1023
6.59753e+07,-74.39
6.60187e+07,-74.5767
6.6062e+07,-75.3875
6.61054e+07,-74.7289
6.61487e+07,-73.7314
6.61921e+07,-74.3159
6.62354e+07,-74.7286
6.62788e+07,-74.3524
6.63221e+07,-74.1702
6.63655e+07,-72.3261
6.64088e+07,-71.2577
6.64522e+07,-71.955
6.64955e+07,-73.8861
6.65388e+07,-74.6895
6.65822e+07,-73.9034
6.66255e+07,-67.4481
6.66689e+07,-73.3612
6.67122e+07,-74.4067
6.67556e+07,-74.0795
6.67989e+07,-73.1982
6.68423e+07,-73.5769
6.68856e+07,-73.7296
6.6929e+07,-71.3863
6.69723e+07,-72.2232
6.70157e+07,-71.4914
6.7059e+07,-71.0776
6.71024e+07,-74.4802
6.71457e+07,-73.937
6.71891e+07,-73.1171
6.72324e+07,-73.3434
6.72758e+07,-70.8897
6.73191e+07,-73.9894
6.73625e+07,-75.0788
6.74058e+07,-74.4422
6.74491e+07,-74.7256
6.74925e+07,-73.5585
6.75358e+07,-73.4915
6.75792e+07,-70.9634
6.76225e+07,-71.2034
6.76659e+07,-72.2939
6.77092e+07,-71.841
6.77526e+07,-70.5019
6.77959e+07,-75.0578
6.78393e+07,-74.7632
6.78826e+07,-73.4573
6.7926e+07,-72.9728
6.79693e+07,-73.6418
6.80127e+07,-72.9569
6.8056e+07,-74.0053
6.80994e+07,-72.0776
6.81427e+07,-74.9183
6.81861e+07,-72.035
6.82294e+07,-69.614
6.82728e+07,-72.2634
6.83161e+07,-71.3961
6.83595e+07,-75.0564
6.84028e+07,-75.2176
6.84461e+07,-74.0754
6.84895e+07,-73.098
6.85328e+07,-73.2102
6.85762e+07,-73.5895
6.86195e+07,-73.1777
6.86629e+07,-75.1158
6.87062e+07,-74.9563
6.87496e+07,-74.8386
6.87929e+07,-72.1471
6.88363e+07,-75.1962
6.88796e+07,-75.2776
6.8923e+07,-75.4639
6.89663e+07,-74.7028
6.90097e+07,-74.877
6.9053e+07,-74.9358
6.90964e+07,-75.0148
6.91397e+07,-74.254
6.91831e+07,-74.588
6.92264e+07,-74.3822
6.92698e+07,-74.9156
6.93131e+07,-74.5688
6.93565e+07,-74.0199
6.93998e+07,-74.6635
6.94431e+07,-75.014
6.94865e+07,-74.0908
6.95298e+07,-73.5201
6.95732e+07,-74.1804
6.96165e+07,-75.8037
6.96599e+07,-75.7386
6.97032e+07,-73.6206
6.97466e+07,-75.1333
6.97899e+07,-73.2882
6.98333e+07,-75.0329
6.98766e+07,-76.3884
6.992e+07,-75.0527
6.99633e+07,-75.4823
7.00067e+07,-74.643
7.005e+07,-71.1083
7.00934e+07,-74.9333
7.01367e+07,-74.38
7.01801e+07,-74.4728
7.02234e+07,-75.1523
7.02668e+07,-75.5026
7.03101e+07,-76.3178
7.03535e+07,-72.2874
7.03968e+07,-75.6722
7.04401e+07,-75.3356
7.04835e+07,-74.8149
7.05268e+07,-74.9322
7.05702e+07,-75.192
7.06135e+07,-73.2051
7.06569e+07,-71.5624
7.07002e+07,-71.1576
7.07436e+07,-75.2937
7.07869e+07,-74.6792
7.08303e+07,-75.4175
7.08736e+07,-74.9511
7.0917e+07,-75.3965
7.09603e+07,-75.5855
7.10037e+07,-73.2042
7.1047e+07,-75.3962
7.10904e+07,-75.8438
7.11337e+07,-76.2238
7.11771e+07,-74.911
7.12204e+07,-75.5214
7.12638e+07,-75.3336
7.13071e+07,-74.9698
7.13505e+07,-73.8744
7.13938e+07,-75.5421
7.14371e+07,-75.7776
7.14805e+07,-75.7126
7.15238e+07,-76.2687
7.15672e+07,-75.1693
7.16105e+07,-75.7772
7.16539e+07,-75.374
7.16972e+07,-75.2504
7.17406e+07,-74.8119
7.17839e+07,-74.9095
7.18273e+07,-76.1086
7.18706e+07,-73.9608
7.1914e+07,-75.7115
7.19573e+07,-74.1746
7.20007e+07,-74.5434
7.2044e+07,-74.6571
7.20874e+07,-76.2674
7.21307e+07,-75.0274
7.21741e+07,-76.1757
7.22174e+07,-74.5807
7.22608e+07,-75.6677
7.23041e+07,-75.7322
7.23474e+07,-75.8627
7.23908e+07,-75.6246
7.24341e+07,-74.6371
7.24775e+07,-75.3306
7.25208e+07,-75.1873
7.25642e+07,-75.1265
7.26075e+07,-75.7965
7.26509e+07,-74.191
7.26942e+07,-76.2889
7.27376e+07,-75.9499
7.27809e+07,-75.5599
7.28243e+07,-74.7319
7.28676e+07,-74.7511
7.2911e+07,-74.4662
7.29543e+07,-75.5594
7.29977e+07,-75.4332
7.3041e+07,-74.011
7.30844e+07,-74.7893
7.31277e+07,-72.9132
7.31711e+07,-74.0284
7.32144e+07,-74.9257
7.32578e+07,-74.3356
7.33011e+07,-74.965
7.33444e+07,-75.2464
7.33878e+07,-75.4741
7.34311e+07,-75.0842
7.34745e+07,-74.8858
7.35178e+07,-75.4319
7.35612e+07,-74.9644
7.36045e+07,-74.788
7.36479e+07,-74.1886
7.36912e+07,-74.6914
7.37346e+07,-75.6856
7.37779e+07,-73.4265
7.38213e+07,-75.7718
7.38646e+07,-75.3894
7.3908e+07,-75.5996
7.39513e+07,-74.6716
7.39947e+07,-75.5781
7.4038e+07,-74.6523
7.40814e+07,-75.0426
7.41247e+07,-74.3335
7.41681e+07,-73.9553
7.42114e+07,-75.2239
7.42548e+07,-74.1872
7.42981e+07,-76.262
7.43414e+07,-75.5138
7.43848e+07,-75.002
7.44281e+07,-74.223
7.44715e+07,-73.9018
7.45148e+07,-75.3671
7.45582e+07,-75.2845
7.46015e+07,-74.4995
7.46449e+07,-73.6767
7.46882e+07,-75.7697
7.47316e+07,-75.2023
7.47749e+07,-75.1011
7.48183e+07,-75.4288
7.48616e+07,-74.9021
7.4905e+07,-74.9217
7.49483e+07,-74.1494
7.49917e+07,-75.2629
7.5035e+07,-75.0403
7.50784e+07,-75.1205
7.51217e+07,-73.953
7.51651e+07,-75.3242
7.52084e+07,-74.2575
7.52518e+07,-74.2029
7.52951e+07,-74.4979
7.53384e+07,-74.5542
7.53818e+07,-75.2007
7.54251e+07,-74.5163
7.54685e+07,-74.8419
7.55118e+07,-73.7603
7.55552e+07,-74.7253
7.55985e+07,-75.6811
7.56419e+07,-75.0189
7.56852e+07,-74.1837
7.57286e+07,-74.7829
7.57719e+07,-73.9514
7.58153e+07,-74.4966
7.58586e+07,-75.8542
7.5902e+07,-75.6161
7.59453e+07,-74.8798
7.59887e+07,-75.8102
7.6032e+07,-73.5716
7.60754e+07,-75.8537
7.61187e+07,-75.723
7.61621e+07,-74.9779
7.62054e+07,-75.1177
7.62487e+07,-75.4462
7.62921e+07,-74.5142
7.63354e+07,-75.0372
7.63788e+07,-75.7874
7.64221e+07,-76.4427
7.64655e+07,-75.7221
7.65088e+07,-75.0969
7.65522e+07,-75.9852
7.65955e+07,-74.42
7.66389e+07,-75.3206
7.66822e+07,-75.5505
7.67256e+07,-75.8961
7.67689e+07,-76.1193
7.68123e+07,-75.3408
7.68556e+07,-75.1363
7.6899e+07,-75.8737
7.69423e+07,-75.3405
7.69857e+07,-76.3712
7.7029e+07,-74.2532
7.70724e+07,-75.8075
7.71157e+07,-74.664
7.71591e+07,-76.0284
7.72024e+07,-75.5704
7.72457e+07,-75.3605
7.72891e+07,-75.2573
7.73324e+07,-75.1554
7.73758e+07,-76.0055
7.74191e+07,-75.135
7.74625e+07,-76.05
7.75058e+07,-76.37
7.75492e+07,-75.9383
7.75925e+07,-74.8955
7.76359e+07,-75.1143
7.76792e+07,-75.1546
7.77226e+07,-76.0944
7.77659e+07,-75.5903
7.78093e+07,-75.4844
7.78526e+07,-75.6542
7.7896e+07,-75.5687
7.79393e+07,-74.4727
7.79827e+07,-75.7185
7.8026e+07,-75.9372
7.80694e+07,-74.7579
7.81127e+07,-75.6536
7.81561e+07,-76.4385
7.81994e+07,-74.1958
7.82427e+07,-75.8485
7.82861e+07,-75.1329
7.83294e+07,-76.5563
7.83728e+07,-75.8921
7.84161e+07,-75.4829
7.84595e+07,-73.5826
7.85028e+07,-75.5673
7.85462e+07,-74.7374
7.85895e+07,-75.7386
7.86329e+07,-76.4845
7.86762e+07,-75.4404
7.87196e+07,-74.834
7.87629e+07,-75.9354
7.88063e+07,-74.7175
7.88496e+07,-76.2281
7.8893e+07,-75.0111
7.89363e+07,-75.545
7.89797e+07,-75.3356
7.9023e+07,-75.4605
7.90664e+07,-75.6085
7.91097e+07,-75.1917
7.91531e+07,-74.9707
7.91964e+07,-75.8681
7.92397e+07,-75.6294
7.92831e+07,-75.5442
7.93264e+07,-75.824
7.93698e+07,-75.7368
7.94131e+07,-76.3654
7.94565e+07,-76.2267
7.94998e+07,-75.7365
7.95432e+07,-74.3573
7.95865e+07,-75.7579
7.96299e+07,-76.3184
7.96732e+07,-76.0447
7.97166e+07,-75.6283
7.97599e+07,-75.4797
7.98033e+07,-75.3336
7.98466e+07,-74.8118
7.989e+07,-75.8226
7.99333e+07,-75.0886
7.99767e+07,-75.4163
8.002e+07,-75.1085
8.00634e+07,-75.3123
8.01067e+07,-75.91
8.01501e+07,-75.4998
8.01934e+07,-74.3927
8.02367e+07,-75.6057
8.02801e+07,-75.5206
8.03234e+07,-76.2936
8.03668e+07,-75.6481
8.04101e+07,-75.7126
8.04535e+07,-74.8886
8.04968e+07,-75.3113
8.05402e+07,-74.7907
8.05835e+07,-75.6691
8.06269e+07,-74.5226
8.06702e+07,-75.4355
8.07136e+07,-73.7134
8.07569e+07,-76.0197
8.08003e+07,-75.6043
8.08436e+07,-74.9666
8.0887e+07,-76.2461
8.09303e+07,-75.1265
8.09737e+07,-75.6682
8.1017e+07,-75.0459
8.10604e+07,-75.3099
8.11037e+07,-75.4345
8.1147e+07,-74.4277
8.11904e+07,-75.3096
8.12337e+07,-74.0446
8.12771e+07,-75.0053
8.13204e+07,-75.3922
8.13638e+07,-76.1536
8.14071e+07,-74.4644
8.14505e+07,-76.018
8.14938e+07,-75.2063
8.15372e+07,-74.8272
8.15805e+07,-74.2604
8.16239e+07,-75.2879
8.16672e+07,-75.5384
8.17106e+07,-75.1651
8.17539e+07,-75.884
8.17973e+07,-73.457
8.18406e+07,-74.7102
8.1884e+07,-74.7487
8.19273e+07,-75.3907
8.19707e+07,-74.8262
8.2014e+07,-74.8652
8.20574e+07,-74.3882
8.21007e+07,-75.2457
8.2144e+07,-74.4626
8.21874e+07,-75.0431
8.22307e+07,-75.225
8.22741e+07,-75.3691
8.23174e+07,-74.1136
8.23608e+07,-75.1231
8.24041e+07,-73.5057
8.24475e+07,-75.3895
8.24908e+07,-73.8825
8.25342e+07,-75.1226
8.25775e+07,-75.3684
8.26209e+07,-74.4055
8.26642e+07,-74.4054
8.27076e+07,-73.6062
8.27509e+07,-73.9345
8.27943e+07,-75.0817
8.28376e+07,-76.037
8.2881e+07,-74.8631
8.29243e+07,-74.7655
8.29677e+07,-75.0212
8.3011e+07,-76.3102
8.30544e+07,-74.184
8.30977e+07,-75.4716
8.3141e+07,-74.8038
8.31844e+07,-74.8428
8.32277e+07,-76.1947
8.32711e+07,-75.2225
8.33144e+07,-75.0604
8.33578e+07,-75.7924
8.34011e+07,-75.3456
8.34445e+07,-74.0929
8.34878e+07,-74.3477
8.35312e+07,-74.8812
8.35745e+07,-76.449
8.36179e+07,-75.5975
8.36612e+07,-75.8573
8.37046e+07,-74.8415
8.37479e+07,-75.0593
8.37913e+07,-74.6288
8.38346e+07,-74.7439
8.3878e+07,-74.8216
8.39213e+07,-74.8606
8.39647e+07,-74.4769
8.4008e+07,-74.5333
8.40514e+07,-75.4693
8.40947e+07,-75.6177
8.4138e+07,-75.7469
8.41814e+07,-74.6853
8.42247e+07,-74.8992
8.42681e+07,-76.4003
8.43114e+07,-76.2379
8.43548e+07,-74.7815
8.43981e+07,-74.2536
8.44415e+07,-75.1585
8.44848e+07,-75.6168
8.45282e+07,-74.627
8.45715e+07,-75.6595
8.46149e+07,-75.2602
8.46582e+07,-74.6841
8.47016e+07,-74.3448
8.47449e+07,-75.4257
8.47883e+07,-75.6805
8.48316e+07,-75.1576
8.4875e+07,-75.2596
8.49183e+07,-75.3627
8.49617e+07,-76.3287
8.5005e+07,-75.1369
8.50483e+07,-76.0317
8.50917e+07,-76.0541
8.5135e+07,-74.7022
8.51784e+07,-75.7227
8.52217e+07,-75.9865
8.52651e+07,-75.9419
8.53084e+07,-74.4176
8.53518e+07,-75.9639
8.53951e+07,-73.7365
8.54385e+07,-75.8311
8.54818e+07,-76.0083
8.55252e+07,-75.5079
8.55685e+07,-75.7652
8.56119e+07,-76.1206
8.56552e+07,-76.1888
8.56986e+07,-74.7588
8.57419e+07,-75.4863
8.57853e+07,-74.2503
8.58286e+07,-76.0523
8.5872e+07,-75.7645
8.59153e+07,-74.7003
8.59587e+07,-74.8557
8.6002e+07,-76.0744
8.60453e+07,-74.7774
8.60887e+07,-76.9269
8.6132e+07,-75.3183
8.61754e+07,-75.4853
8.62187e+07,-76.7541
8.62621e+07,-75.9617
8.63054e+07,-76.0512
8.63488e+07,-75.7851
8.63921e+07,-75.5908
8.64355e+07,-76.1413
8.64788e+07,-75.4845
8.65222e+07,-75.8066
8.65655e+07,-76.2095
8.66089e+07,-75.741
8.66522e+07,-75.7844
8.66956e+07,-76.3245
8.67389e+07,-76.1634
8.67823e+07,-75.4417
8.68256e+07,-75.7404
8.6869e+07,-74.8144
8.69123e+07,-73.6471
8.69557e+07,-76.4408
8.6999e+07,-75.568
8.70423e+07,-75.2955
8.70857e+07,-76.2542
8.7129e+07,-75.4619
8.71724e+07,-75.0913
8.72157e+07,-76.3932
8.72591e+07,-75.6101
8.73024e+07,-75.8266
8.73458e+07,-75.3777
8.73891e+07,-75.6312
8.74325e+07,-74.7353
8.74758e+07,-75.8922
8.75192e+07,-76.0933
8.75625e+07,-75.6094
8.76059e+07,-75.9808
8.76492e+07,-75.8918
8.76926e+07,-74.9105
8.77359e+07,-75.4185
8.77793e+07,-74.581
8.78226e+07,-76.2294
8.7866e+07,-76.2523
8.79093e+07,-75.6085
8.79527e+07,-74.9892
8.7996e+07,-75.9798
8.80393e+07,-75.913
8.80827e+07,-75.5229
8.8126e+07,-74.5612
8.81694e+07,-76.2286
8.82127e+07,-76.8475
8.82561e+07,-74.772
8.82994e+07,-75.6505
8.83428e+07,-76.1823
8.83861e+07,-75.9122
8.84295e+07,-75.21
8.84728e+07,-76.7
8.85162e+07,-76.0909
8.85595e+07,-74.5602
8.86029e+07,-74.8689
8.86462e+07,-76.023
8.86896e+07,-75.0675
8.87329e+07,-75.6065
8.87763e+07,-75.9334
8.88196e+07,-75.1277
8.8863e+07,-75.7791
8.89063e+07,-76.0674
8.89496e+07,-76.1125
8.8993e+07,-74.4461
8.90363e+07,-75.7569
8.90797e+07,-74.8874
8.9123e+07,-74.848
8.91664e+07,-75.3525
8.92097e+07,-74.4268
8.92531e+07,-76.272
8.92964e+07,-75.0861
8.93398e+07,-74.3521
8.93831e+07,-75.6694
8.94265e+07,-73.8308
8.94698e+07,-74.7497
8.95132e+07,-75.7994
8.95565e+07,-75.8431
8.95999e+07,-75.0252
8.96432e+07,-75.4769
8.96866e+07,-73.4714
8.97299e+07,-76.505
8.97733e+07,-74.0418
8.98166e+07,-75.9087
8.986e+07,-75.7331
8.99033e+07,-75.8864
8.99466e+07,-75.3506
8.999e+07,-75.0643
9.00333e+07,-74.4811
9.00767e+07,-76.3396
9.012e+07,-74.5754
9.01634e+07,-75.4126
9.02067e+07,-76.0417
9.02501e+07,-75.8855
9.02934e+07,-76.5991
9.03368e+07,-75.9742
9.03801e+07,-76.2924
9.04235e+07,-74.3866
9.04668e+07,-75.4119
9.05102e+07,-75.003
9.05535e+07,-76.4793
9.05969e+07,-75.5593
9.06402e+07,-74.3675
9.06836e+07,-73.9507
9.07269e+07,-75.8403
9.07703e+07,-74.9228
9.08136e+07,-75.6444
9.0857e+07,-74.2564
9.09003e+07,-76.2912
9.09436e+07,-75.0219
9.0987e+07,-74.9223
9.10303e+07,-74.4975
9.10737e+07,-75.2036
9.1117e+07,-76.1528
9.11604e+07,-74.9417
9.12037e+07,-75.6006
9.12471e+07,-75.3891
9.12904e+07,-75.3681
9.13338e+07,-76.1295
9.13771e+07,-75.3679
9.14205e+07,-76.2437
9.14638e+07,-75.9269
9.15072e+07,-75.8604
9.15505e+07,-76.129
9.15939e+07,-75.2639
9.16372e+07,-76.3126
9.16806e+07,-75.8821
9.17239e+07,-76.0381
9.17673e+07,-75.2019
9.18106e+07,-75.7938
9.1854e+07,-76.2197
9.18973e+07,-73.6864
9.19406e+07,-75.325
9.1984e+07,-74.7631
9.20273e+07,-75.7496
9.20707e+07,-76.1277
9.2114e+07,-75.2216
9.21574e+07,-75.793
9.22007e+07,-75.903
9.22441e+07,-75.16
9.22874e+07,-75.0187
9.23308e+07,-75.1395
9.23741e+07,-75.4493
9.24175e+07,-76.4512
9.24608e+07,-75.7704
9.25042e+07,-75.5335
9.25475e+07,-76.1039
9.25909e+07,-76.5696
9.26342e+07,-76.1948
9.26776e+07,-76.7875
9.27209e+07,-75.2612
9.27643e+07,-75.9238
9.28076e+07,-75.8573
9.2851e+07,-75.4903
9.28943e+07,-75.1992
9.29376e+07,-74.8585
9.2981e+07,-75.3433
9.30243e+07,-76.0575
9.30677e+07,-76.4261
9.3111e+07,-75.9675
9.31544e+07,-75.4474
9.31977e+07,-75.9896
9.32411e+07,-74.2323
9.32844e+07,-74.9963
9.33278e+07,-74.3425
9.33711e+07,-75.4469
9.34145e+07,-76.8103
9.34578e+07,-76.3782
9.35012e+07,-75.8556
9.35445e+07,-76.6878
9.35879e+07,-76.0787
9.36312e+07,-76.4483
9.36746e+07,-76.0559
9.37179e+07,-76.2844
9.37613e+07,-76.4716
9.38046e+07,-76.4479
9.38479e+07,-75.7018
9.38913e+07,-75.5301
9.39346e+07,-75.7887
9.3978e+07,-75.9431
9.40213e+07,-74.9745
9.40647e+07,-75.8322
9.4108e+07,-77.0329
9.41514e+07,-76.2371
9.41947e+07,-74.8162
9.42381e+07,-76.7837
9.42814e+07,-75.1755
9.43248e+07,-76.1451
9.43681e+07,-76.7589
9.44115e+07,-76.2827
9.44548e+07,-75.6571
9.44982e+07,-76.6855
9.45415e+07,-76.2824
9.45849e+07,-76.2823
9.46282e+07,-76.6609
9.46716e+07,-75.5708
9.47149e+07,-74.8542
9.47583e+07,-76.906
9.48016e+07,-73.8528
9.48449e+07,-76.1438
9.48883e+07,-75.0928
9.49316e+07,-75.9408
9.4975e+07,-76.4924
9.50183e+07,-76.2581
9.50617e+07,-75.4008
9.5105e+07,-76.3742
9.51484e+07,-75.1327
9.51917e+07,-76.5394
9.52351e+07,-75.3795
9.52784e+07,-75.7854
9.53218e+07,-77.03
9.53651e+07,-76.0068
9.54085e+07,-74.5816
9.54518e+07,-75.2546
9.54952e+07,-76.1422
9.55385e+07,-75.6977
9.55819e+07,-76.373
9.56252e+07,-76.0964
9.56686e+07,-76.0511
9.57119e+07,-74.2446
9.57553e+07,-74.9108
9.57986e+07,-74.9703
9.58419e+07,-75.6538
9.58853e+07,-74.5615
9.59286e+07,-74.773
9.5972e+07,-75.0499
9.60153e+07,-75.0901
9.60587e+07,-75.6533
9.6102e+07,-76.1636
9.61454e+07,-76.0049
9.61887e+07,-76.0048
9.62321e+07,-75.9377
9.62754e+07,-76.2782
9.63188e+07,-76.6327
9.63621e+07,-76.163
9.64055e+07,-76.8277
9.64488e+07,-75.3766
9.64922e+07,-75.4604
9.65355e+07,-75.8925
9.65789e+07,-76.0715
9.66222e+07,-75.6735
9.66656e+07,-75.46
9.67089e+07,-75.8479
9.67523e+07,-75.355
9.67956e+07,-75.2926
9.68389e+07,-75.4595
9.68823e+07,-75.5017
9.69256e+07,-74.8882
9.6969e+07,-76.1159
9.70123e+07,-75.5226
9.70557e+07,-75.292
9.7099e+07,-76.4399
9.71424e+07,-75.6291
9.71857e+07,-74.809
9.72291e+07,-75.7371
9.72724e+07,-75.9575
9.73158e+07,-76.703
9.73591e+07,-74.4072
9.74025e+07,-76.558
9.74458e+07,-74.6725
9.74892e+07,-76.1374
9.75325e+07,-76.6057
9.75759e+07,-74.808
9.76192e+07,-74.3879
9.76626e+07,-75.8235
9.77059e+07,-76.5095
9.77492e+07,-75.5421
9.77926e+07,-76.2514
9.78359e+07,-76.2976
9.78793e+07,-74.7101
9.79226e+07,-76.5329
9.7966e+07,-75.2074
9.80093e+07,-75.269
9.80527e+07,-74.4429
9.8096e+07,-75.2277
9.81394e+07,-76.0451
9.81827e+07,-76.2736
9.82261e+07,-75.1456
9.82694e+07,-75.6695
9.83128e+07,-75.6694
9.83561e+07,-74.3675
9.83995e+07,-76.0671
9.84428e+07,-75.6475
9.84862e+07,-75.4345
9.85295e+07,-74.5172
9.85729e+07,-75.8214
9.86162e+07,-76.4599
9.86596e+07,-75.5612
9.87029e+07,-75.7118
9.87462e+07,-75.0835
9.87896e+07,-75.6252
9.88329e+07,-75.7332
9.88763e+07,-76.5305
9.89196e+07,-75.9535
9.8963e+07,-75.9981
9.90063e+07,-75.2049
9.90497e+07,-75.4331
9.9093e+07,-74.883
9.91364e+07,-76.1107
9.91797e+07,-74.3469
9.92231e+07,-75.7323
9.92664e+07,-75.6455
9.93098e+07,-76.6255
9.93531e+07,-74.4586
9.93965e+07,-74.8232
9.94398e+07,-74.591
9.94832e+07,-74.4959
9.95265e+07,-75.5591
9.95699e+07,-76.2703
9.96132e+07,-75.4108
9.96566e+07,-75.3272
9.96999e+07,-75.5801
9.97432e+07,-75.3062
9.97866e+07,-75.2236
9.98299e+07,-75.4734
9.98733e+07,-74.6474
9.99166e+07,-76.2232
9.996e+07,-76.2001
1.00003e+08,-74.271
1.00047e+08,-75.5792
1.0009e+08,-75.6651
1.00133e+08,-76.131
1.00177e+08,-77.0183
1.0022e+08,-76.0627
1.00263e+08,-76.1764
1.00307e+08,-74.4751
1.0035e+08,-74.5317
1.00393e+08,-75.9276
1.00437e+08,-74.9591
1.0048e+08,-76.1989
1.00524e+08,-74.2514
1.00567e+08,-77.2476
1.0061e+08,-75.1398
1.00654e+08,-76.2445
1.00697e+08,-75.0788
1.0074e+08,-76.4784
1.00784e+08,-76.0613
1.00827e+08,-74.7223
1.0087e+08,-74.1774
1.00914e+08,-76.267
1.00957e+08,-75.8597
1.01e+08,-76.0835
1.01044e+08,-74.8389
1.01087e+08,-76.7182
1.0113e+08,-75.8372
1.01174e+08,-76.5729
1.01217e+08,-75.7493
1.0126e+08,-75.1383
1.01304e+08,-76.5247
1.01347e+08,-77.2198
1.0139e+08,-75.8587
1.01434e+08,-74.7987
1.01477e+08,-75.4694
1.01521e+08,-76.3353
1.01564e+08,-75.1988
1.01607e+08,-76.3118
1.01651e+08,-77.04
1.01694e+08,-75.88
1.01737e+08,-76.059
1.01781e+08,-76.1043
1.01824e+08,-75.9242
1.01867e+08,-75.0357
1.01911e+08,-75.7694
1.01954e+08,-75.0556
1.01997e+08,-75.2388
1.02041e+08,-76.0583
1.02084e+08,-74.7581
1.02127e+08,-75.9457
1.02171e+08,-76.058
1.02214e+08,-76.0805
1.02257e+08,-76.5224
1.02301e+08,-75.9453
1.02344e+08,-76.035
1.02387e+08,-75.1968
1.02431e+08,-75.2377
1.02474e+08,-76.4743
1.02518e+08,-75.8781
1.02561e+08,-75.5518
1.02604e+08,-75.7241
1.02648e+08,-75.0943
1.02691e+08,-74.0465
1.02734e+08,-74.679
1.02778e+08,-75.0738
1.02821e+08,-74.6788
1.02864e+08,-76.1244
1.02908e+08,-73.677
1.02951e+08,-75.6151
1.02994e+08,-75.6581
1.03038e+08,-76.5924
1.03081e+08,-75.5505
1.03124e+08,-75.4444
1.03168e+08,-74.7361
1.03211e+08,-73.8325
1.03254e+08,-76.078
1.03298e+08,-75.1741
1.03341e+08,-75.9876
1.03384e+08,-76.2379
1.03428e+08,-75.7877
1.03471e+08,-76.4245
1.03515e+08,-75.3386
1.03558e+08,-75.8313
1.03601e+08,-76.1684
1.03645e+08,-76.4952
1.03688e+08,-75.7215
1.03731e+08,-74.8718
1.03775e+08,-76.2601
1.03818e+08,-76.6388
1.03861e+08,-75.7211
1.03905e+08,-75.8085
1.03948e+08,-75.6991
1.03991e+08,-75.7426
1.04035e+08,-75.4844
1.04078e+08,-75.6771
1.04121e+08,-75.4631
1.04165e+08,-74.4282
1.04208e+08,-75.5265
1.04251e+08,-75.5051
1.04295e+08,-75.6119
1.04338e+08,-76.2356
1.04381e+08,-75.8514
1.04425e+08,-74.5981
1.04468e+08,-75.9624
1.04512e+08,-76.6129
1.04555e+08,-75.9846
1.04598e+08,-74.1684
1.04642e+08,-74.5975
1.04685e+08,-74.8105
1.04728e+08,-75.5893
1.04772e+08,-76.2809
1.04815e+08,-76.2345
1.04858e+08,-75.8724
1.04902e+08,-75.6104
1.04945e+08,-76.4683
1.04988e+08,-74.3144
1.05032e+08,-75.8058
1.05075e+08,-76.2338
1.05118e+08,-75.2107
1.05162e+08,-76.28
1.05205e+08,-75.1287
1.05248e+08,-74.8879
1.05292e+08,-74.0942
1.05335e+08,-76.1185
1.05378e+08,-75.3759
1.05422e+08,-76.1411
1.05465e+08,-74.9869
1.05509e+08,-75.4809
1.05552e+08,-76.279
1.05595e+08,-74.8083
1.05639e+08,-75.8263
1.05682e+08,-76.2324
1.05725e+08,-74.7688
1.05769e+08,-75.6298
1.05812e+08,-75.9145
1.05855e+08,-75.7599
1.05899e+08,-76.0716
1.05942e+08,-75.6726
1.05985e+08,-76.278
1.06029e+08,-76.0261
1.06072e+08,-75.7813
1.06115e+08,-74.0203
1.06159e+08,-75.1877
1.06202e+08,-76.4653
1.06245e+08,-74.7092
1.06289e+08,-75.9357
1.06332e+08,-75.8689
1.06375e+08,-75.5854
1.06419e+08,-75.3943
1.06462e+08,-74.6893
1.06506e+08,-76.0702
1.06549e+08,-76.2534
1.06592e+08,-74.8059
1.06636e+08,-74.441
1.06679e+08,-75.0644
1.06722e+08,-75.3936
1.06766e+08,-74.7274
1.06809e+08,-75.3307
1.06852e+08,-75.1248
1.06896e+08,-76.299
1.06939e+08,-75.8896
1.06982e+08,-75.4985
1.07026e+08,-76.1144
1.07069e+08,-75.7351
1.07112e+08,-75.023
1.07156e+08,-75.4769
1.07199e+08,-76.2519
1.07242e+08,-74.9626
1.07286e+08,-75.8444
1.07329e+08,-76.2515
1.07372e+08,-75.9778
1.07416e+08,-76.1363
1.07459e+08,-75.669
1.07503e+08,-75.3708
1.07546e+08,-76.2048
1.07589e+08,-75.7121
1.07633e+08,-75.712
1.07676e+08,-75.6468
1.07719e+08,-76.5811
1.07763e+08,-76.4853
1.07806e+08,-75.7771
1.07849e+08,-74.686
1.07893e+08,-74.3817
1.07936e+08,-75.9317
1.07979e+08,-75.7329
1.08023e+08,-76.2731
1.08066e+08,-76.3664
1.08109e+08,-76.6526
1.08153e+08,-76.021
1.08196e+08,-74.8216
1.08239e+08,-76.6766
1.08283e+08,-76.319
1.08326e+08,-75.8862
1.08369e+08,-74.9399
1.08413e+08,-74.8408
1.08456e+08,-75.9752
1.08499e+08,-76.2256
1.08543e+08,-75.8193
1.08586e+08,-74.8207
1.0863e+08,-76.6757
1.08673e+08,-75.0798
1.08716e+08,-76.483
1.0876e+08,-75.6226
1.08803e+08,-76.0194
1.08846e+08,-75.2429
1.0889e+08,-75.3674
1.08933e+08,-74.8592
1.08976e+08,-75.5363
1.0902e+08,-76.6504
1.09063e+08,-76.1552
1.09106e+08,-75.5147
1.0915e+08,-76.5058
1.09193e+08,-75.3877
1.09236e+08,-76.2469
1.0928e+08,-75.1393
1.09323e+08,-74.8189
1.09366e+08,-76.7472
1.0941e+08,-75.3871
1.09453e+08,-75.1593
1.09496e+08,-76.6009
1.0954e+08,-76.5527
1.09583e+08,-75.7509
1.09627e+08,-75.5561
1.0967e+08,-76.6975
1.09713e+08,-75.9947
1.09757e+08,-75.8828
1.098e+08,-75.9945
1.09843e+08,-76.0621
1.09887e+08,-75.3025
1.0993e+08,-75.8602
1.09973e+08,-75.6846
1.10017e+08,-75.47
1.1006e+08,-75.6627
1.10103e+08,-76.107
1.10147e+08,-75.1986
1.1019e+08,-74.3018
1.10233e+08,-74.6802
1.10277e+08,-76.1066
1.1032e+08,-76.1981
1.10363e+08,-76.6958
1.10407e+08,-76.2906
1.1045e+08,-76.9683
1.10493e+08,-75.64
1.10537e+08,-75.3635
1.1058e+08,-75.1975
1.10624e+08,-67.0718
1.10667e+08,-72.3958
1.1071e+08,-76.0148
1.10754e+08,-76.3364
1.10797e+08,-75.4048
1.1084e+08,-74.3002
1.10884e+08,-76.1738
1.10927e+08,-75.1149
1.1097e+08,-76.1277
1.11014e+08,-75.7913
1.11057e+08,-74.7755
1.111e+08,-74.6781
1.11144e+08,-76.5969
1.11187e+08,-76.0136
1.1123e+08,-76.3587
1.11274e+08,-75.9237
1.11317e+08,-75.2783
1.1136e+08,-74.0976
1.11404e+08,-75.2161
1.11447e+08,-76.0356
1.1149e+08,-76.1264
1.11534e+08,-75.9454
1.11577e+08,-75.4451
1.11621e+08,-76.1033
1.11664e+08,-75.856
1.11707e+08,-75.3397
1.11751e+08,-75.8336
1.11794e+08,-75.4024
1.11837e+08,-75.4868
1.11881e+08,-75.8333
1.11924e+08,-75.6582
1.11967e+08,-75.5933
1.12011e+08,-75.9891
1.12054e+08,-75.3598
1.12097e+08,-74.3903
1.12141e+08,-75.7448
1.12184e+08,-74.5602
1.12227e+08,-76.0337
1.12271e+08,-75.9436
1.12314e+08,-75.9884
1.12357e+08,-75.3382
1.12401e+08,-75.7005
1.12444e+08,-75.193
1.12487e+08,-74.4081
1.12531e+08,-75.5277
1.12574e+08,-74.8702
1.12618e+08,-74.6745
1.12661e+08,-75.3793
1.12704e+08,-76.285
1.12748e+08,-74.2956
1.12791e+08,-76.0323
1.12834e+08,-75.09
1.12878e+08,-75.987
1.12921e+08,-75.8974
1.12964e+08,-74.6736
1.13008e+08,-75.6556
1.13051e+08,-75.9641
1.13094e+08,-75.964
1.13138e+08,-75.4202
1.13181e+08,-76.5199
1.13224e+08,-75.4411
1.13268e+08,-75.8521
1.13311e+08,-75.6548
1.13354e+08,-76.0084
1.13398e+08,-75.5899
1.13441e+08,-75.2939
1.13484e+08,-76.5192
1.13528e+08,-74.2752
1.13571e+08,-75.6326
1.13615e+08,-75.377
1.13658e+08,-76.471
1.13701e+08,-75.8511
1.13745e+08,-75.7409
1.13788e+08,-75.6321
1.13831e+08,-75.546
1.13875e+08,-76.0979
1.13918e+08,-74.8868
1.13961e+08,-75.3552
1.14005e+08,-74.4044
1.14048e+08,-76.2818
1.14091e+08,-75.1276
1.14135e+08,-75.6096
1.14178e+08,-75.5451
1.14221e+08,-75.5236
1.14265e+08,-75.6525
1.14308e+08,-74.9256
1.14351e+08,-75.0661
1.14395e+08,-76.0511
1.14438e+08,-74.9253
1.14481e+08,-75.8936
1.14525e+08,-75.9158
1.14568e+08,-75.717
1.14612e+08,-76.3271
1.14655e+08,-74.8652
1.14698e+08,-75.2081
1.14742e+08,-74.8452
1.14785e+08,-76.2336
1.14828e+08,-75.5222
1.14872e+08,-74.8055
1.14915e+08,-76.3733
1.14958e+08,-75.5647
1.15002e+08,-75.2901
1.15045e+08,-75.3735
1.15088e+08,-75.3107
1.15132e+08,-76.5152
1.15175e+08,-76.0493
1.15218e+08,-75.5426
1.15262e+08,-76.0945
1.15305e+08,-75.759
1.15348e+08,-75.3101
1.15392e+08,-74.6485
1.15435e+08,-76.1398
1.15478e+08,-76.2319
1.15522e+08,-75.8689
1.15565e+08,-75.9805
1.15609e+08,-75.1854
1.15652e+08,-76.0481
1.15695e+08,-74.6284
1.15739e+08,-76.0706
1.15782e+08,-75.1236
1.15825e+08,-76.442
1.15869e+08,-76.4657
1.15912e+08,-75.1847
1.15955e+08,-75.5194
1.15999e+08,-74.551
1.16042e+08,-76.3471
1.16085e+08,-76.3235
1.16129e+08,-75.9343
1.16172e+08,-75.823
1.16215e+08,-76.0467
1.16259e+08,-75.6694
1.16302e+08,-76.5124
1.16345e+08,-75.1836
1.16389e+08,-76.417
1.16432e+08,-75.9336
1.16475e+08,-76.0688
1.16519e+08,-76.0915
1.16562e+08,-74.8606
1.16606e+08,-74.5115
1.16649e+08,-76.114
1.16692e+08,-75.286
1.16736e+08,-76.0682
1.16779e+08,-76.2287
1.16822e+08,-76.0453
1.16866e+08,-76.4158
1.16909e+08,-75.369
1.16952e+08,-75.9323
1.16996e+08,-76.6069
1.17039e+08,-76.7779
1.17082e+08,-76.5585
1.17126e+08,-76.0445
1.17169e+08,-75.9542
1.17212e+08,-75.8426
1.17256e+08,-75.4737
1.17299e+08,-75.8868
1.17342e+08,-76.4622
1.17386e+08,-77.1811
1.17429e+08,-75.7979
1.17472e+08,-76.3671
1.17516e+08,-76.2967
1.17559e+08,-77.39
1.17603e+08,-75.5797
1.17646e+08,-75.9083
1.17689e+08,-76.533
1.17733e+08,-74.8183
1.17776e+08,-77.103
1.17819e+08,-76.3663
1.17863e+08,-77.18
1.17906e+08,-75.8631
1.17949e+08,-75.0777
1.17993e+08,-76.6288
1.18036e+08,-75.7087
1.18079e+08,-75.1589
1.18123e+08,-75.7962
1.18166e+08,-76.3891
1.18209e+08,-76.6525
1.18253e+08,-76.2252
1.18296e+08,-76.0644
1.18339e+08,-75.2613
1.18383e+08,-75.8176
1.18426e+08,-75.4497
1.18469e+08,-76.3883
1.18513e+08,-76.0639
1.18556e+08,-75.2815
1.186e+08,-77.0499
1.18643e+08,-76.3879
1.18686e+08,-76.2939
1.1873e+08,-75.9057
1.18773e+08,-76.7984
1.18816e+08,-76.3875
1.1886e+08,-76.2702
1.18903e+08,-75.491
1.18946e+08,-74.9343
1.1899e+08,-75.364
1.19033e+08,-76.0854
1.19076e+08,-76.0398
1.1912e+08,-75.6408
1.19163e+08,-75.7497
1.19206e+08,-74.9337
1.1925e+08,-76.3394
1.19293e+08,-76.0848
1.19336e+08,-76.3862
1.1938e+08,-76.9972
1.19423e+08,-75.9712
1.19466e+08,-76.3388
1.1951e+08,-76.5767
1.19553e+08,-76.5766
1.19597e+08,-76.5044
1.1964e+08,-76.084
1.19683e+08,-76.1296
1.19727e+08,-75.3832
1.1977e+08,-76.6976
1.19813e+08,-75.4676
1.19857e+08,-76.1751
1.199e+08,-74.8131
1.19943e+08,-76.1749
1.19987e+08,-75.3826
1.2003e+08,-75.7696
1.20073e+08,-75.0725
1.20117e+08,-74.6952
1.2016e+08,-76.3372
1.20203e+08,-76.5509
1.20247e+08,-75.7033
1.2029e+08,-75.424
1.20333e+08,-73.6694
1.20377e+08,-75.215
1.2042e+08,-76.0821
1.20463e+08,-75.7905
1.20507e+08,-75.1122
1.2055e+08,-75.8124
1.20594e+08,-75.5296
1.20637e+08,-75.4868
1.2068e+08,-75.901
1.20724e+08,-76.5257
1.20767e+08,-75.2555
1.2081e+08,-75.4228
1.20854e+08,-75.8782
1.20897e+08,-75.4862
1.2094e+08,-75.7235
1.20984e+08,-75.658
1.21027e+08,-75.1723
1.2107e+08,-75.9224
1.21114e+08,-75.5928
1.21157e+08,-74.6153
1.212e+08,-75.4855
1.21244e+08,-75.5495
1.21287e+08,-74.4056
1.2133e+08,-74.3868
1.21374e+08,-75.4851
1.21417e+08,-76.3107
1.2146e+08,-75.9663
1.21504e+08,-75.337
1.21547e+08,-74.8288
1.21591e+08,-74.908
1.21634e+08,-75.7
1.21677e+08,-75.008
1.21721e+08,-74.7107
1.21764e+08,-73.6315
1.21807e+08,-75.5481
1.21851e+08,-75.8314
1.21894e+08,-75.6341
1.21937e+08,-75.8534
1.21981e+08,-75.7869
1.22024e+08,-75.3148
1.22067e+08,-75.4198
1.22111e+08,-74.9667
1.22154e+08,-72.4578
1.22197e+08,-74.8075
1.22241e+08,-75.655
1.22284e+08,-74.8468
1.22327e+08,-75.356
1.22371e+08,-75.3979
1.22414e+08,-75.3978
1.22457e+08,-76.3082
1.22501e+08,-76.5214
1.22544e+08,-75.7196
1.22588e+08,-75.3344
1.22631e+08,-74.3089
1.22674e+08,-74.8261
1.22718e+08,-75.8515
1.22761e+08,-74.9251
1.22804e+08,-75.2092
1.22848e+08,-73.962
1.22891e+08,-75.5241
1.22934e+08,-75.3126
1.22978e+08,-74.8848
1.23021e+08,-74.9645
1.23064e+08,-75.94
1.23108e+08,-76.0984
1.23151e+08,-75.1262
1.23194e+08,-76.8374
1.23238e+08,-76.2596
1.23281e+08,-75.4592
1.23324e+08,-76.353
1.23368e+08,-75.3955
1.23411e+08,-76.2359
1.23454e+08,-75.984
1.23498e+08,-76.495
1.23541e+08,-75.6736
1.23585e+08,-75.501
1.23628e+08,-74.8832
1.23671e+08,-76.0515
1.23715e+08,-74.4375
1.23758e+08,-76.1197
1.23801e+08,-76.5182
1.23845e+08,-75.5432
1.23888e+08,-75.1654
1.23931e+08,-74.6279
1.23975e+08,-76.4224
1.24018e+08,-75.782
1.24061e+08,-75.0832
1.24105e+08,-75.5212
1.24148e+08,-75.9824
1.24191e+08,-76.2108
1.24235e+08,-76.0274
1.24278e+08,-75.8255
1.24321e+08,-75.9145
1.24365e+08,-76.2802
1.24408e+08,-75.2882
1.24451e+08,-75.6714
1.24495e+08,-76.4211
1.24538e+08,-74.881
1.24582e+08,-75.8692
1.24625e+08,-74.9406
1.24668e+08,-76.2795
1.24712e+08,-76.3497
1.24755e+08,-76.2793
1.24798e+08,-75.9583
1.24842e+08,-76.0033
1.24885e+08,-76.8084
1.24928e+08,-76.2555
1.24972e+08,-76.2322
1.25015e+08,-74.7418
1.25058e+08,-76.3253
1.25102e+08,-75.6916
1.25145e+08,-76.0025
1.25188e+08,-75.2655
1.25232e+08,-76.0477
1.25275e+08,-77.1621
1.25318e+08,-74.8197
1.25362e+08,-76.7086
1.25405e+08,-76.0929
1.25448e+08,-76.6108
1.25492e+08,-75.0392
1.25535e+08,-76.0926
1.25579e+08,-74.9584
1.25622e+08,-76.7819
1.25665e+08,-76.3239
1.25709e+08,-75.7339
1.25752e+08,-76.0464
1.25795e+08,-76.0919
1.25839e+08,-76.1147
1.25882e+08,-74.9176
1.25925e+08,-76.4891
1.25969e+08,-75.8659
1.26012e+08,-74.818
1.26055e+08,-77.1861
1.26099e+08,-74.5076
1.26142e+08,-75.6673
1.26185e+08,-75.91
1.26229e+08,-76.5364
1.26272e+08,-76.5363
1.26315e+08,-76.2289
1.26359e+08,-74.6027
1.26402e+08,-75.7322
1.26445e+08,-75.4092
1.26489e+08,-75.494
1.26532e+08,-76.0218
1.26576e+08,-76.3452
1.26619e+08,-76.0671
1.26662e+08,-76.0215
1.26706e+08,-76.6077
1.26749e+08,-76.6319
1.26792e+08,-76.1354
1.26836e+08,-76.7542
1.26879e+08,-75.0968
1.26922e+08,-76.754
1.26966e+08,-75.3868
1.27009e+08,-76.2505
1.27052e+08,-75.6
1.27096e+08,-75.6433
1.27139e+08,-76.2502
1.27182e+08,-74.3352
1.27226e+08,-75.9075
1.27269e+08,-76.32
1.27312e+08,-76.4143
1.27356e+08,-76.134
1.27399e+08,-75.8624
1.27442e+08,-76.4855
1.27486e+08,-76.1337
1.27529e+08,-76.3429
1.27573e+08,-76.5814
1.27616e+08,-75.3642
1.27659e+08,-75.7732
1.27703e+08,-75.6635
1.27746e+08,-75.3639
1.27789e+08,-76.2486
1.27833e+08,-76.4131
1.27876e+08,-75.7506
1.27919e+08,-75.4693
1.27963e+08,-75.5763
1.28006e+08,-75.6194
1.28049e+08,-75.0533
1.28093e+08,-74.8923
1.28136e+08,-76.1321
1.28179e+08,-75.4262
1.28223e+08,-76.1549
1.28266e+08,-75.5111
1.28309e+08,-75.8602
1.28353e+08,-75.8824
1.28396e+08,-75.2578
1.28439e+08,-75.7934
1.28483e+08,-75.1133
1.28526e+08,-74.9713
1.2857e+08,-74.9914
1.28613e+08,-75.5103
1.28656e+08,-76.3874
1.287e+08,-76.5546
1.28743e+08,-76.2231
1.28786e+08,-76.1766
1.2883e+08,-75.7045
1.28873e+08,-74.8309
1.28916e+08,-75.0107
1.2896e+08,-75.4243
1.29003e+08,-75.7699
1.29046e+08,-76.2223
1.2909e+08,-75.1734
1.29133e+08,-76.1297
1.29176e+08,-75.2559
1.2922e+08,-75.132
1.29263e+08,-75.3602
1.29306e+08,-75.2764
1.2935e+08,-75.9473
1.29393e+08,-76.6013
1.29436e+08,-74.9491
1.2948e+08,-75.813
1.29523e+08,-74.8293
1.29567e+08,-76.1287
1.2961e+08,-75.1106
1.29653e+08,-75.4864
1.29697e+08,-74.711
1.2974e+08,-75.3801
1.29783e+08,-74.7108
1.29827e+08,-75.296
1.2987e+08,-75.1715
1.29913e+08,-75.3167
1.29957e+08,-74.8878
1.3e+08,-75.9908
