FileType,0
Number of Points,3000
Sweep Time,3e+08
Start Frequency,0
Stop Frequency,1.3e+08
Average Count,1
Average Type,0
RBW,10000
RBW Filter,0
RBW Filter BW,0
VBW,10000
Sweep Type,0
X Axis Scale,1
PreAmp State,0
Trigger Source,0
Trigger Level,-25
Trigger Edge,0
Trigger Delay Switch,0
Trigger Delay,1
Attenuation,20
Ref Level Offset,0
External Gain,0
Trace Type,0
Detector,0
Trace Math,5
Trace Math Oper1,4
Trace Math Oper2,5
Trace Math Offset,0
Trace Name,0
Full Span,1.3e+08
Y Axis Unit,0
DATA,
0,-14.3115
43347.8,-64.2521
86695.6,-38.8494
130043,-40.9017
173391,-47.4001
216739,-46.933
260087,-45.6278
303434,-47.1226
346782,-49.5527
390130,-49.4158
433478,-55.4402
476826,-59.8284
520173,-63.6551
563521,-66.2888
606869,-67.3357
650217,-68.4316
693565,-67.7435
736912,-70.1786
780260,-70.2711
823608,-71.2563
866956,-69.5774
910303,-71.361
953651,-69.7509
996999,-70.4351
1.04035e+06,-68.994
1.08369e+06,-71.5191
1.12704e+06,-69.3836
1.17039e+06,-69.9254
1.21374e+06,-65.7146
1.25709e+06,-67.8615
1.30043e+06,-64.4696
1.34378e+06,-66.9083
1.38713e+06,-61.7165
1.43048e+06,-63.8567
1.47382e+06,-56.3452
1.51717e+06,-60.6976
1.56052e+06,-55.7943
1.60387e+06,-57.6683
1.64722e+06,-58.4743
1.69056e+06,-68.3461
1.73391e+06,-64.5842
1.77726e+06,-69.5449
1.82061e+06,-68.5332
1.86395e+06,-71.7543
1.9073e+06,-70.2116
1.95065e+06,-70.9605
1.994e+06,-70.3742
2.03735e+06,-70.8101
2.08069e+06,-71.7529
2.12404e+06,-71.6156
2.16739e+06,-70.8598
2.21074e+06,-70.4217
2.25408e+06,-69.982
2.29743e+06,-70.2106
2.34078e+06,-70.493
2.38413e+06,-69.9593
2.42748e+06,-68.7434
2.47082e+06,-62.8806
2.51417e+06,-64.7271
2.55752e+06,-67.5055
2.60087e+06,-67.6767
2.64421e+06,-68.704
2.68756e+06,-70.0267
2.73091e+06,-70.0494
2.77426e+06,-69.1024
2.81761e+06,-69.5844
2.86095e+06,-69.9362
2.9043e+06,-69.1022
2.94765e+06,-67.1071
2.991e+06,-68.1199
3.03434e+06,-69.4984
3.07769e+06,-69.6057
3.12104e+06,-69.6925
3.16439e+06,-68.1197
3.20774e+06,-68.7816
3.25108e+06,-68.0833
3.29443e+06,-67.7105
3.33778e+06,-67.6069
3.38113e+06,-68.4158
3.42447e+06,-66.0403
3.46782e+06,-66.8195
3.51117e+06,-65.8558
3.55452e+06,-67.6238
3.59787e+06,-67.2533
3.64121e+06,-65.9971
3.68456e+06,-67.2203
3.72791e+06,-66.9138
3.77126e+06,-66.6946
3.8146e+06,-67.1547
3.85795e+06,-66.71
3.9013e+06,-66.6328
3.94465e+06,-65.7715
3.988e+06,-66.3906
4.03134e+06,-65.6609
4.07469e+06,-66.648
4.11804e+06,-66.7251
4.16139e+06,-66.9609
4.20473e+06,-66.1693
4.24808e+06,-65.9254
4.29143e+06,-65.6743
4.33478e+06,-65.9252
4.37813e+06,-65.1283
4.42147e+06,-65.7848
4.46482e+06,-65.9819
4.50817e+06,-66.8339
4.55152e+06,-66.5101
4.59486e+06,-65.7568
4.63821e+06,-65.5375
4.68156e+06,-65.1021
4.72491e+06,-65.0635
4.76826e+06,-64.9237
4.8116e+06,-63.9921
4.85495e+06,-65.1665
4.8983e+06,-65.0633
4.94165e+06,-65.1793
4.98499e+06,-64.1519
5.02834e+06,-64.268
5.07169e+06,-64.8981
5.11504e+06,-65.784
5.15839e+06,-63.7902
5.20173e+06,-64.8229
5.24508e+06,-63.6257
5.28843e+06,-63.443
5.33178e+06,-63.2953
5.37513e+06,-63.6147
5.41847e+06,-65.0883
5.46182e+06,-64.9861
5.50517e+06,-63.2847
5.54852e+06,-62.9067
5.59186e+06,-64.0252
5.63521e+06,-63.834
5.67856e+06,-63.7124
5.72191e+06,-63.3158
5.76526e+06,-64.4442
5.8086e+06,-64.3965
5.85195e+06,-63.856
5.8953e+06,-64.5521
5.93865e+06,-64.0247
5.98199e+06,-62.9663
6.02534e+06,-63.1186
6.06869e+06,-62.7378
6.11204e+06,-63.7119
6.15539e+06,-63.0572
6.19873e+06,-62.3447
6.24208e+06,-62.9058
6.28543e+06,-63.057
6.32878e+06,-62.8261
6.37212e+06,-63.9562
6.41547e+06,-63.378
6.45882e+06,-63.4841
6.50217e+06,-62.2976
6.54552e+06,-62.363
6.58886e+06,-61.4968
6.63221e+06,-62.7273
6.67556e+06,-63.0973
6.71891e+06,-62.7861
6.76225e+06,-63.6782
6.8056e+06,-62.2507
6.84895e+06,-63.5265
6.8923e+06,-62.5046
6.93565e+06,-62.4664
6.97899e+06,-61.8963
7.02234e+06,-62.7072
7.06569e+06,-63.0968
7.10904e+06,-62.0216
7.15238e+06,-63.356
7.19573e+06,-63.1685
7.23908e+06,-61.0245
7.28243e+06,-62.4375
7.32578e+06,-63.2719
7.36912e+06,-63.2199
7.41247e+06,-62.9244
7.45582e+06,-62.3619
7.49917e+06,-62.0846
7.54251e+06,-63.5256
7.58586e+06,-63.0655
7.62921e+06,-62.5996
7.67256e+06,-62.6092
7.71591e+06,-61.7804
7.75925e+06,-61.7541
7.8026e+06,-62.6478
7.84595e+06,-63.6441
7.8893e+06,-63.106
7.93264e+06,-62.5607
7.97599e+06,-63.1161
8.01934e+06,-62.4841
8.06269e+06,-62.6087
8.10604e+06,-62.599
8.14938e+06,-63.3337
8.19273e+06,-62.7547
8.23608e+06,-62.2768
8.27943e+06,-62.389
8.32277e+06,-62.6181
8.36612e+06,-63.0646
8.40947e+06,-62.1933
8.45282e+06,-62.4077
8.49617e+06,-62.903
8.53951e+06,-63.6107
8.58286e+06,-63.589
8.62621e+06,-63.2495
8.66956e+06,-63.2183
8.7129e+06,-64.1357
8.75625e+06,-64.1126
8.7996e+06,-62.1103
8.84295e+06,-63.6429
8.8863e+06,-63.396
8.92964e+06,-62.0828
8.97299e+06,-62.5979
9.01634e+06,-63.6863
9.05969e+06,-62.8823
9.10303e+06,-63.9528
9.14638e+06,-63.8853
9.18973e+06,-62.3691
9.23308e+06,-63.3114
9.27643e+06,-63.0838
9.31977e+06,-63.6314
9.36312e+06,-63.9187
9.40647e+06,-62.9018
9.44982e+06,-64.4874
9.49316e+06,-64.2273
9.53651e+06,-64.0202
9.57986e+06,-64.0429
9.62321e+06,-63.523
9.66656e+06,-64.2738
9.7099e+06,-64.5352
9.75325e+06,-63.5767
9.7966e+06,-63.4693
9.83995e+06,-64.681
9.88329e+06,-63.3842
9.92664e+06,-63.9631
9.96999e+06,-63.2895
1.00133e+07,-64.6193
1.00567e+07,-63.8278
1.01e+07,-64.8282
1.01434e+07,-63.143
1.01867e+07,-63.1529
1.02301e+07,-64.4966
1.02734e+07,-63.938
1.03168e+07,-64.0282
1.03601e+07,-64.6288
1.04035e+07,-64.7885
1.04468e+07,-65.5541
1.04902e+07,-64.1069
1.05335e+07,-64.2924
1.05769e+07,-64.0604
1.06202e+07,-63.9127
1.06636e+07,-64.7245
1.07069e+07,-65.1283
1.07503e+07,-64.8231
1.07936e+07,-64.116
1.08369e+07,-64.3135
1.08803e+07,-63.9332
1.09236e+07,-65.1784
1.0967e+07,-65.0875
1.10103e+07,-64.4545
1.10537e+07,-65.1514
1.1097e+07,-64.4538
1.11404e+07,-65.481
1.11837e+07,-65.1116
1.12271e+07,-64.4051
1.12704e+07,-65.3067
1.13138e+07,-64.8062
1.13571e+07,-65.1361
1.14005e+07,-64.5115
1.14438e+07,-65.1743
1.14872e+07,-64.7427
1.15305e+07,-64.7548
1.15739e+07,-64.5584
1.16172e+07,-64.6311
1.16606e+07,-66.0618
1.17039e+07,-64.5816
1.17472e+07,-64.8277
1.17906e+07,-64.4603
1.18339e+07,-65.1452
1.18773e+07,-65.2755
1.19206e+07,-65.9595
1.1964e+07,-65.4883
1.20073e+07,-66.7771
1.20507e+07,-66.927
1.2094e+07,-65.9979
1.21374e+07,-66.1413
1.21807e+07,-67.5694
1.22241e+07,-66.7972
1.22674e+07,-67.2939
1.23108e+07,-66.2865
1.23541e+07,-66.9977
1.23975e+07,-67.0925
1.24408e+07,-67.0483
1.24842e+07,-66.537
1.25275e+07,-66.9388
1.25709e+07,-66.0083
1.26142e+07,-66.9456
1.26576e+07,-67.4819
1.27009e+07,-67.6524
1.27442e+07,-66.4669
1.27876e+07,-67.8422
1.28309e+07,-66.4664
1.28743e+07,-67.9871
1.29176e+07,-66.4114
1.2961e+07,-65.9351
1.30043e+07,-66.929
1.30477e+07,-67.761
1.3091e+07,-65.9602
1.31344e+07,-66.1954
1.31777e+07,-67.037
1.32211e+07,-66.8704
1.32644e+07,-67.5171
1.33078e+07,-67.7358
1.33511e+07,-66.9851
1.33945e+07,-66.214
1.34378e+07,-66.6428
1.34812e+07,-67.2125
1.35245e+07,-65.8808
1.35679e+07,-59.6078
1.36112e+07,-64.8615
1.36546e+07,-66.0545
1.36979e+07,-63.9955
1.37412e+07,-63.7566
1.37846e+07,-64.7532
1.38279e+07,-63.1703
1.38713e+07,-63.417
1.39146e+07,-61.9772
1.3958e+07,-61.1633
1.40013e+07,-64.0507
1.40447e+07,-63.4838
1.4088e+07,-61.5463
1.41314e+07,-63.8148
1.41747e+07,-64.388
1.42181e+07,-63.201
1.42614e+07,-63.794
1.43048e+07,-64.7954
1.43481e+07,-65.7494
1.43915e+07,-66.0636
1.44348e+07,-66.7641
1.44782e+07,-65.4573
1.45215e+07,-67.5568
1.45649e+07,-67.5721
1.46082e+07,-67.5408
1.46516e+07,-67.4788
1.46949e+07,-66.0163
1.47382e+07,-67.1241
1.47816e+07,-67.0138
1.48249e+07,-68.1995
1.48683e+07,-68.2832
1.49116e+07,-66.797
1.4955e+07,-66.8324
1.49983e+07,-67.6951
1.50417e+07,-68.1733
1.5085e+07,-66.5852
1.51284e+07,-67.5924
1.51717e+07,-67.2482
1.52151e+07,-68.139
1.52584e+07,-66.8953
1.53018e+07,-67.8366
1.53451e+07,-67.4214
1.53885e+07,-68.9014
1.54318e+07,-68.2549
1.54752e+07,-68.0797
1.55185e+07,-68.9462
1.55619e+07,-68.3899
1.56052e+07,-66.7295
1.56485e+07,-67.4581
1.56919e+07,-68.6937
1.57352e+07,-68.5182
1.57786e+07,-68.7288
1.58219e+07,-67.2372
1.58653e+07,-68.219
1.59086e+07,-67.8978
1.5952e+07,-68.3878
1.59953e+07,-67.4103
1.60387e+07,-68.9891
1.6082e+07,-67.8324
1.61254e+07,-66.6704
1.61687e+07,-69.1923
1.62121e+07,-69.3339
1.62554e+07,-67.9364
1.62988e+07,-68.3774
1.63421e+07,-68.2922
1.63855e+07,-67.1226
1.64288e+07,-68.6809
1.64722e+07,-67.9109
1.65155e+07,-69.2092
1.65589e+07,-67.9267
1.66022e+07,-69.5735
1.66455e+07,-68.9858
1.66889e+07,-68.4612
1.67322e+07,-67.5604
1.67756e+07,-68.9121
1.68189e+07,-68.8666
1.68623e+07,-69.1792
1.69056e+07,-66.8864
1.6949e+07,-68.9842
1.69923e+07,-68.3652
1.70357e+07,-69.3009
1.7079e+07,-68.6597
1.71224e+07,-69.0846
1.71657e+07,-67.6834
1.72091e+07,-69.6788
1.72524e+07,-69.6785
1.72958e+07,-69.5014
1.73391e+07,-68.9273
1.73825e+07,-69.0094
1.74258e+07,-69.2989
1.74692e+07,-67.8491
1.75125e+07,-69.0363
1.75559e+07,-68.666
1.75992e+07,-68.0107
1.76425e+07,-69.2126
1.76859e+07,-68.8438
1.77292e+07,-68.8617
1.77726e+07,-68.0839
1.78159e+07,-68.5418
1.78593e+07,-69.4306
1.79026e+07,-68.4719
1.7946e+07,-68.0664
1.79893e+07,-68.6548
1.80327e+07,-69.4587
1.8076e+07,-68.1736
1.81194e+07,-69.3811
1.81627e+07,-68.6804
1.82061e+07,-67.9829
1.82494e+07,-67.9745
1.82928e+07,-69.1997
1.83361e+07,-68.6707
1.83795e+07,-68.4005
1.84228e+07,-69.7922
1.84662e+07,-68.1465
1.85095e+07,-68.9941
1.85529e+07,-69.4656
1.85962e+07,-69.612
1.86395e+07,-69.6711
1.86829e+07,-68.4246
1.87262e+07,-68.433
1.87696e+07,-67.132
1.88129e+07,-68.5713
1.88563e+07,-69.1591
1.88996e+07,-68.5012
1.8943e+07,-68.8371
1.89863e+07,-68.5355
1.90297e+07,-68.8637
1.9073e+07,-68.0439
1.91164e+07,-67.3782
1.91597e+07,-68.6751
1.92031e+07,-68.6043
1.92464e+07,-67.1666
1.92898e+07,-67.9771
1.93331e+07,-67.2258
1.93765e+07,-67.1659
1.94198e+07,-69.1187
1.94632e+07,-68.3263
1.95065e+07,-68.8341
1.95498e+07,-68.4113
1.95932e+07,-68.6727
1.96365e+07,-68.4367
1.96799e+07,-67.6936
1.97232e+07,-68.1731
1.97666e+07,-68.7966
1.98099e+07,-68.6982
1.98533e+07,-68.3242
1.98966e+07,-68.778
1.994e+07,-67.4889
1.99833e+07,-67.0811
2.00267e+07,-67.6288
2.007e+07,-68.1048
2.01134e+07,-68.9126
2.01567e+07,-69.0779
2.02001e+07,-68.0136
2.02434e+07,-68.723
2.02868e+07,-68.6342
2.03301e+07,-68.2799
2.03735e+07,-67.251
2.04168e+07,-67.2208
2.04602e+07,-66.8251
2.05035e+07,-66.9986
2.05468e+07,-68.3386
2.05902e+07,-67.6504
2.06335e+07,-67.0494
2.06769e+07,-67.9464
2.07202e+07,-66.9541
2.07636e+07,-67.1227
2.08069e+07,-65.959
2.08503e+07,-67.5867
2.08936e+07,-67.0411
2.0937e+07,-67.9537
2.09803e+07,-67.2639
2.10237e+07,-66.7022
2.1067e+07,-67.1961
2.11104e+07,-66.0361
2.11537e+07,-67.4229
2.11971e+07,-67.1286
2.12404e+07,-67.815
2.12838e+07,-67.1953
2.13271e+07,-68.0755
2.13705e+07,-68.0671
2.14138e+07,-67.7584
2.14572e+07,-67.8143
2.15005e+07,-68.5335
2.15438e+07,-68.2671
2.15872e+07,-68.116
2.16305e+07,-68.1994
2.16739e+07,-66.2795
2.17172e+07,-67.6621
2.17606e+07,-67.6148
2.18039e+07,-68.825
2.18473e+07,-66.1719
2.18906e+07,-67.5986
2.1934e+07,-68.2235
2.19773e+07,-66.9423
2.20207e+07,-68.2401
2.2064e+07,-68.7344
2.21074e+07,-68.672
2.21507e+07,-67.7398
2.21941e+07,-67.0807
2.22374e+07,-68.557
2.22808e+07,-69.173
2.23241e+07,-68.3152
2.23675e+07,-68.3491
2.24108e+07,-67.8109
2.24542e+07,-67.0356
2.24975e+07,-67.087
2.25408e+07,-68.6262
2.25842e+07,-67.7303
2.26275e+07,-68.3739
2.26709e+07,-67.1904
2.27142e+07,-68.2798
2.27576e+07,-68.382
2.28009e+07,-68.5725
2.28443e+07,-67.0195
2.28876e+07,-68.625
2.2931e+07,-66.8522
2.29743e+07,-67.9057
2.30177e+07,-66.9677
2.3061e+07,-68.0363
2.31044e+07,-68.9202
2.31477e+07,-67.3547
2.31911e+07,-67.8001
2.32344e+07,-68.2611
2.32778e+07,-66.8582
2.33211e+07,-68.527
2.33645e+07,-68.2775
2.34078e+07,-67.5698
2.34512e+07,-66.729
2.34945e+07,-67.6243
2.35378e+07,-68.1591
2.35812e+07,-68.4999
2.36245e+07,-67.2696
2.36679e+07,-68.3019
2.37112e+07,-67.9031
2.37546e+07,-67.9355
2.37979e+07,-67.5684
2.38413e+07,-66.8346
2.38846e+07,-66.685
2.3928e+07,-68.025
2.39713e+07,-67.6541
2.40147e+07,-67.6856
2.4058e+07,-67.6933
2.41014e+07,-66.4544
2.41447e+07,-68.7807
2.41881e+07,-67.9748
2.42314e+07,-67.6453
2.42748e+07,-68.3338
2.43181e+07,-67.9498
2.43615e+07,-67.3124
2.44048e+07,-68.6727
2.44481e+07,-67.5583
2.44915e+07,-67.6444
2.45348e+07,-67.5346
2.45782e+07,-68.2563
2.46215e+07,-68.7164
2.46649e+07,-67.4798
2.47082e+07,-67.8591
2.47516e+07,-67.5572
2.47949e+07,-68.2979
2.48383e+07,-66.5834
2.48816e+07,-67.643
2.4925e+07,-66.8595
2.49683e+07,-66.6319
2.50117e+07,-66.3623
2.5055e+07,-67.3708
2.50984e+07,-68.1368
2.51417e+07,-66.9166
2.51851e+07,-67.8332
2.52284e+07,-67.9384
2.52718e+07,-68.3047
2.53151e+07,-67.4697
2.53585e+07,-66.8436
2.54018e+07,-66.0865
2.54451e+07,-67.1135
2.54885e+07,-67.2554
2.55318e+07,-67.0909
2.55752e+07,-67.1725
2.56185e+07,-67.3383
2.56619e+07,-67.0609
2.57052e+07,-66.98
2.57486e+07,-66.2583
2.57919e+07,-66.9287
2.58353e+07,-67.8228
2.58786e+07,-67.0675
2.5922e+07,-67.2012
2.59653e+07,-68.059
2.60087e+07,-66.3113
2.6052e+07,-66.5165
2.60954e+07,-66.4956
2.61387e+07,-67.2682
2.61821e+07,-66.8839
2.62254e+07,-66.6626
2.62688e+07,-67.0588
2.63121e+07,-67.0439
2.63555e+07,-67.0364
2.63988e+07,-66.2761
2.64421e+07,-66.2558
2.64855e+07,-66.4804
2.65288e+07,-67.45
2.65722e+07,-67.3121
2.66155e+07,-66.473
2.66589e+07,-64.9065
2.67022e+07,-66.2146
2.67456e+07,-67.0497
2.67889e+07,-66.9543
2.68323e+07,-65.7199
2.68756e+07,-66.5205
2.6919e+07,-66.7664
2.69623e+07,-65.7511
2.70057e+07,-66.403
2.7049e+07,-66.1401
2.70924e+07,-66.3345
2.71357e+07,-66.6664
2.71791e+07,-66.375
2.72224e+07,-66.2396
2.72658e+07,-66.1393
2.73091e+07,-65.8008
2.73525e+07,-67.4239
2.73958e+07,-65.5675
2.74391e+07,-66.2321
2.74825e+07,-66.1985
2.75258e+07,-65.3341
2.75692e+07,-66.3057
2.76125e+07,-66.0457
2.76559e+07,-66.3122
2.76992e+07,-65.1836
2.77426e+07,-65.4982
2.77859e+07,-66.4827
2.78293e+07,-65.9795
2.78726e+07,-66.1505
2.7916e+07,-65.8306
2.79593e+07,-66.8415
2.80027e+07,-64.5908
2.8046e+07,-64.5962
2.80894e+07,-65.8621
2.81327e+07,-66.4127
2.81761e+07,-65.5523
2.82194e+07,-66.2629
2.82628e+07,-65.4105
2.83061e+07,-66.9198
2.83494e+07,-63.9474
2.83928e+07,-66.1553
2.84361e+07,-66.7183
2.84795e+07,-66.4526
2.85228e+07,-64.5557
2.85662e+07,-65.5385
2.86095e+07,-66.4041
2.86529e+07,-65.4397
2.86962e+07,-65.0093
2.87396e+07,-65.6439
2.87829e+07,-66.081
2.88263e+07,-65.55
2.88696e+07,-65.032
2.8913e+07,-65.5435
2.89563e+07,-65.3897
2.89997e+07,-64.7328
2.9043e+07,-66.2802
2.90864e+07,-64.8119
2.91297e+07,-65.2922
2.91731e+07,-66.3136
2.92164e+07,-65.1901
2.92598e+07,-64.8513
2.93031e+07,-65.7111
2.93464e+07,-64.8053
2.93898e+07,-64.142
2.94331e+07,-64.0578
2.94765e+07,-65.4001
2.95198e+07,-64.497
2.95632e+07,-64.5852
2.96065e+07,-65.0939
2.96499e+07,-64.9478
2.96932e+07,-64.447
2.97366e+07,-64.884
2.97799e+07,-64.4576
2.98233e+07,-64.7638
2.98666e+07,-64.7072
2.991e+07,-64.6341
2.99533e+07,-64.9641
2.99967e+07,-64.061
3.004e+07,-64.2298
3.00834e+07,-64.7459
3.01267e+07,-63.1999
3.01701e+07,-63.9771
3.02134e+07,-62.2623
3.02568e+07,-63.2185
3.03001e+07,-63.9045
3.03434e+07,-63.8072
3.03868e+07,-63.5371
3.04301e+07,-64.0647
3.04735e+07,-62.7781
3.05168e+07,-63.9655
3.05602e+07,-64.2707
3.06035e+07,-64.9618
3.06469e+07,-64.2758
3.06902e+07,-63.2597
3.07336e+07,-61.8738
3.07769e+07,-63.3505
3.08203e+07,-63.6645
3.08636e+07,-62.678
3.0907e+07,-61.8003
3.09503e+07,-62.7584
3.09937e+07,-63.7291
3.1037e+07,-63.7642
3.10804e+07,-62.47
3.11237e+07,-63.0928
3.11671e+07,-63.2105
3.12104e+07,-61.687
3.12538e+07,-63.3972
3.12971e+07,-64.7586
3.13404e+07,-63.9059
3.13838e+07,-63.6077
3.14271e+07,-63.3049
3.14705e+07,-64.3971
3.15138e+07,-62.9983
3.15572e+07,-63.5922
3.16005e+07,-63.4397
3.16439e+07,-64.9118
3.16872e+07,-64.4618
3.17306e+07,-64.7684
3.17739e+07,-64.2718
3.18173e+07,-64.0965
3.18606e+07,-63.9092
3.1904e+07,-63.1605
3.19473e+07,-63.5809
3.19907e+07,-62.9183
3.2034e+07,-64.739
3.20774e+07,-64.4221
3.21207e+07,-63.8162
3.21641e+07,-64.1268
3.22074e+07,-63.4962
3.22508e+07,-63.831
3.22941e+07,-64.2378
3.23374e+07,-63.6192
3.23808e+07,-63.8356
3.24241e+07,-64.7206
3.24675e+07,-63.7591
3.25108e+07,-64.4863
3.25542e+07,-64.3066
3.25975e+07,-64.1729
3.26409e+07,-64.5079
3.26842e+07,-64.7028
3.27276e+07,-64.0043
3.27709e+07,-64.68
3.28143e+07,-64.8904
3.28576e+07,-64.4139
3.2901e+07,-64.5456
3.29443e+07,-64.2783
3.29877e+07,-64.6455
3.3031e+07,-63.7926
3.30744e+07,-64.9704
3.31177e+07,-64.4403
3.31611e+07,-63.951
3.32044e+07,-63.9353
3.32477e+07,-65.7415
3.32911e+07,-64.5831
3.33344e+07,-64.7005
3.33778e+07,-64.7625
3.34211e+07,-63.8421
3.34645e+07,-65.3069
3.35078e+07,-65.4408
3.35512e+07,-65.8555
3.35945e+07,-65.8361
3.36379e+07,-63.8159
3.36812e+07,-65.5389
3.37246e+07,-65.4893
3.37679e+07,-66.5586
3.38113e+07,-64.727
3.38546e+07,-66.4956
3.3898e+07,-66.1357
3.39413e+07,-65.263
3.39847e+07,-65.1731
3.4028e+07,-64.0729
3.40714e+07,-65.4449
3.41147e+07,-65.9441
3.41581e+07,-66.029
3.42014e+07,-65.3043
3.42447e+07,-65.3648
3.42881e+07,-66.3021
3.43314e+07,-64.3272
3.43748e+07,-66.1074
3.44181e+07,-66.4867
3.44615e+07,-66.9124
3.45048e+07,-67.059
3.45482e+07,-66.4655
3.45915e+07,-67.1405
3.46349e+07,-66.1264
3.46782e+07,-67.1327
3.47216e+07,-66.396
3.47649e+07,-66.6533
3.48083e+07,-66.4163
3.48516e+07,-66.119
3.4895e+07,-66.5406
3.49383e+07,-66.5405
3.49817e+07,-67.1167
3.5025e+07,-65.5902
3.50684e+07,-66.3674
3.51117e+07,-66.9539
3.51551e+07,-66.3262
3.51984e+07,-67.0787
3.52417e+07,-66.8228
3.52851e+07,-67.1455
3.53284e+07,-66.581
3.53718e+07,-67.2884
3.54151e+07,-67.2125
3.54585e+07,-66.9599
3.55018e+07,-66.1433
3.55452e+07,-67.6763
3.55885e+07,-65.5695
3.56319e+07,-67.3102
3.56752e+07,-65.8222
3.57186e+07,-66.728
3.57619e+07,-66.0958
3.58053e+07,-67.4556
3.58486e+07,-65.4018
3.5892e+07,-67.2561
3.59353e+07,-66.0095
3.59787e+07,-67.2407
3.6022e+07,-64.7475
3.60654e+07,-66.3707
3.61087e+07,-65.5864
3.61521e+07,-67.4312
3.61954e+07,-65.2791
3.62387e+07,-66.6906
3.62821e+07,-65.718
3.63254e+07,-66.8406
3.63688e+07,-65.7558
3.64121e+07,-66.452
3.64555e+07,-66.3693
3.64988e+07,-67.3377
3.65422e+07,-66.5487
3.65855e+07,-67.7283
3.66289e+07,-67.3986
3.66722e+07,-67.2382
3.67156e+07,-67.1703
3.67589e+07,-68.0205
3.68023e+07,-67.2151
3.68456e+07,-67.3059
3.6889e+07,-66.0522
3.69323e+07,-67.4052
3.69757e+07,-66.9472
3.7019e+07,-67.5919
3.70624e+07,-68.0609
3.71057e+07,-66.9249
3.7149e+07,-67.7664
3.71924e+07,-68.2623
3.72357e+07,-67.7021
3.72791e+07,-68.4512
3.73224e+07,-67.7337
3.73658e+07,-68.1518
3.74091e+07,-67.2887
3.74525e+07,-68.1347
3.74958e+07,-68.2357
3.75392e+07,-68.5113
3.75825e+07,-68.3121
3.76259e+07,-68.8139
3.76692e+07,-68.7416
3.77126e+07,-67.5501
3.77559e+07,-68.5632
3.77993e+07,-67.5185
3.78426e+07,-68.1753
3.7886e+07,-69.2978
3.79293e+07,-68.8219
3.79727e+07,-69.136
3.8016e+07,-68.9037
3.80594e+07,-69.6394
3.81027e+07,-68.2675
3.8146e+07,-69.6092
3.81894e+07,-68.677
3.82327e+07,-68.8481
3.82761e+07,-67.8838
3.83194e+07,-69.451
3.83628e+07,-67.9736
3.84061e+07,-68.9482
3.84495e+07,-68.5344
3.84928e+07,-69.7887
3.85362e+07,-67.7856
3.85795e+07,-68.8834
3.86229e+07,-67.4844
3.86662e+07,-69.4889
3.87096e+07,-68.3768
3.87529e+07,-70.2998
3.87963e+07,-67.4994
3.88396e+07,-68.4369
3.8883e+07,-67.7442
3.89263e+07,-68.4627
3.89697e+07,-69.2556
3.9013e+07,-69.2842
3.90564e+07,-69.7059
3.90997e+07,-68.4186
3.9143e+07,-69.8884
3.91864e+07,-70.9229
3.92297e+07,-67.4279
3.92731e+07,-70.0225
3.93164e+07,-68.8079
3.93598e+07,-68.6817
3.94031e+07,-69.4961
3.94465e+07,-68.6191
3.94898e+07,-68.9444
3.95332e+07,-69.5844
3.95765e+07,-68.1439
3.96199e+07,-68.4864
3.96632e+07,-67.8463
3.97066e+07,-67.9195
3.97499e+07,-68.3387
3.97933e+07,-67.3873
3.98366e+07,-68.7338
3.988e+07,-68.0177
3.99233e+07,-67.7646
3.99667e+07,-67.2872
4.001e+07,-66.7842
4.00534e+07,-68.6793
4.00967e+07,-66.8127
4.014e+07,-66.5219
4.01834e+07,-67.6201
4.02267e+07,-67.2635
4.02701e+07,-67.7795
4.03134e+07,-66.7831
4.03568e+07,-66.4864
4.04001e+07,-69.4143
4.04435e+07,-68.319
4.04868e+07,-67.3082
4.05302e+07,-68.6687
4.05735e+07,-67.8593
4.06169e+07,-69.1454
4.06602e+07,-68.2329
4.07036e+07,-70.5329
4.07469e+07,-69.278
4.07903e+07,-69.5108
4.08336e+07,-71.2351
4.0877e+07,-68.3691
4.09203e+07,-71.3191
4.09637e+07,-71.1987
4.1007e+07,-70.9977
4.10504e+07,-70.9859
4.10937e+07,-71.1863
4.1137e+07,-70.6989
4.11804e+07,-69.912
4.12237e+07,-71.8038
4.12671e+07,-71.998
4.13104e+07,-71.3663
4.13538e+07,-72.0108
4.13971e+07,-72.0765
4.14405e+07,-71.8416
4.14838e+07,-72.4822
4.15272e+07,-71.6504
4.15705e+07,-72.1156
4.16139e+07,-72.4679
4.16572e+07,-71.7767
4.17006e+07,-72.4537
4.17439e+07,-72.9217
4.17873e+07,-71.2677
4.18306e+07,-72.1413
4.1874e+07,-72.0616
4.19173e+07,-72.0351
4.19607e+07,-72.762
4.2004e+07,-73.2021
4.20473e+07,-71.7117
4.20907e+07,-72.2611
4.2134e+07,-70.7633
4.21774e+07,-72.3014
4.22207e+07,-72.9785
4.22641e+07,-72.761
4.23074e+07,-72.507
4.23508e+07,-72.6752
4.23941e+07,-73.6012
4.24375e+07,-73.3525
4.24808e+07,-72.1925
4.25242e+07,-71.8249
4.25675e+07,-72.2865
4.26109e+07,-72.9332
4.26542e+07,-71.6338
4.26976e+07,-72.2185
4.27409e+07,-72.889
4.27843e+07,-71.6585
4.28276e+07,-73.4126
4.2871e+07,-72.3671
4.29143e+07,-71.888
4.29577e+07,-72.4769
4.3001e+07,-72.787
4.30443e+07,-72.7869
4.30877e+07,-72.6584
4.3131e+07,-73.4115
4.31744e+07,-72.2303
4.32177e+07,-72.4622
4.32611e+07,-71.131
4.33044e+07,-71.2865
4.33478e+07,-72.3517
4.33911e+07,-71.7069
4.34345e+07,-72.0297
4.34778e+07,-70.1547
4.35212e+07,-72.0822
4.35645e+07,-72.9006
4.36079e+07,-72.0422
4.36512e+07,-72.586
4.36946e+07,-72.7416
4.37379e+07,-73.3939
4.37813e+07,-72.8274
4.38246e+07,-70.9295
4.3868e+07,-71.0461
4.39113e+07,-71.0577
4.39547e+07,-71.7685
4.3998e+07,-72.9428
4.40413e+07,-70.1315
4.40847e+07,-72.5006
4.4128e+07,-70.8477
4.41714e+07,-72.5841
4.42147e+07,-70.5093
4.42581e+07,-72.6684
4.43014e+07,-71.2708
4.43448e+07,-72.0002
4.43881e+07,-71.1151
4.44315e+07,-72.1721
4.44748e+07,-71.2461
4.45182e+07,-71.4283
4.45615e+07,-70.4421
4.46049e+07,-72.2118
4.46482e+07,-70.709
4.46916e+07,-71.1496
4.47349e+07,-70.7427
4.47783e+07,-72.9254
4.48216e+07,-70.2997
4.4865e+07,-72.5536
4.49083e+07,-69.6851
4.49517e+07,-71.8937
4.4995e+07,-70.4735
4.50383e+07,-71.7903
4.50817e+07,-70.4622
4.5125e+07,-71.9974
4.51684e+07,-70.2877
4.52117e+07,-72.3042
4.52551e+07,-69.0631
4.52984e+07,-73.327
4.53418e+07,-69.9905
4.53851e+07,-72.8651
4.54285e+07,-69.9901
4.54718e+07,-72.3578
4.55152e+07,-69.3573
4.55585e+07,-71.8527
4.56019e+07,-69.4642
4.56452e+07,-71.266
4.56886e+07,-69.7936
4.57319e+07,-72.2482
4.57753e+07,-69.8239
4.58186e+07,-69.5323
4.5862e+07,-69.1551
4.59053e+07,-71.7744
4.59486e+07,-70.1036
4.5992e+07,-70.1883
4.60353e+07,-70.9449
4.60787e+07,-70.2845
4.6122e+07,-70.8521
4.61654e+07,-71.2281
4.62087e+07,-69.7308
4.62521e+07,-72.5208
4.62954e+07,-69.8322
4.63388e+07,-72.112
4.63821e+07,-71.5081
4.64255e+07,-71.4585
4.64688e+07,-71.4337
4.65122e+07,-72.4643
4.65555e+07,-72.2317
4.65989e+07,-71.7209
4.66422e+07,-72.3127
4.66856e+07,-71.5818
4.67289e+07,-72.9039
4.67723e+07,-72.2987
4.68156e+07,-71.5813
4.6859e+07,-72.0703
4.69023e+07,-72.4629
4.69456e+07,-72.1766
4.6989e+07,-72.5182
4.70323e+07,-71.0114
4.70757e+07,-72.8736
4.7119e+07,-71.6431
4.71624e+07,-72.7292
4.72057e+07,-71.9116
4.72491e+07,-72.4616
4.72924e+07,-71.4554
4.73358e+07,-71.7693
4.73791e+07,-70.6767
4.74225e+07,-72.5027
4.74658e+07,-71.4301
4.75092e+07,-70.6989
4.75525e+07,-70.3767
4.75959e+07,-71.7684
4.76392e+07,-70.9741
4.76826e+07,-72.35
4.77259e+07,-71.1866
4.77693e+07,-72.0671
4.78126e+07,-71.1982
4.7856e+07,-72.4733
4.78993e+07,-69.4364
4.79426e+07,-71.5026
4.7986e+07,-70.7311
4.80293e+07,-71.1975
4.80727e+07,-70.0645
4.8116e+07,-71.6774
4.81594e+07,-70.0957
4.82027e+07,-71.1968
4.82461e+07,-70.1803
4.82894e+07,-69.4644
4.83328e+07,-69.8148
4.83761e+07,-70.095
4.84195e+07,-69.3373
4.84628e+07,-71.6762
4.85062e+07,-71.2921
4.85495e+07,-70.7633
4.85929e+07,-70.9591
4.86362e+07,-71.1714
4.86796e+07,-70.82
4.87229e+07,-69.0695
4.87663e+07,-71.6498
4.88096e+07,-70.6266
4.8853e+07,-70.5594
4.88963e+07,-70.1567
4.89396e+07,-70.4815
4.8983e+07,-70.3282
4.90263e+07,-70.6596
4.90697e+07,-71.3999
4.9113e+07,-71.1101
4.91564e+07,-71.9699
4.91997e+07,-72.5803
4.92431e+07,-70.6588
4.92864e+07,-72.3169
4.93298e+07,-72.1815
4.93731e+07,-72.0085
4.94165e+07,-71.8907
4.94598e+07,-71.5844
4.95032e+07,-70.6804
4.95465e+07,-72.2481
4.95899e+07,-73.2356
4.96332e+07,-70.5901
4.96766e+07,-71.5586
4.97199e+07,-71.4221
4.97633e+07,-72.18
4.98066e+07,-72.2337
4.98499e+07,-72.5359
4.98933e+07,-72.2604
4.99366e+07,-72.4937
4.998e+07,-72.3418
5.00233e+07,-72.6621
5.00667e+07,-72.4516
5.011e+07,-73.4021
5.01534e+07,-72.0454
5.01967e+07,-73.0535
5.02401e+07,-72.2458
5.02834e+07,-71.9268
5.03268e+07,-72.5343
5.03701e+07,-72.6327
5.04135e+07,-71.9525
5.04568e+07,-73.3088
5.05002e+07,-72.1641
5.05435e+07,-72.6039
5.05869e+07,-72.0176
5.06302e+07,-72.8322
5.06736e+07,-71.9126
5.07169e+07,-73.9094
5.07603e+07,-72.6882
5.08036e+07,-72.8897
5.08469e+07,-70.475
5.08903e+07,-73.5714
5.09336e+07,-71.8727
5.0977e+07,-74.1243
5.10203e+07,-71.9114
5.10637e+07,-73.4456
5.1107e+07,-71.8076
5.11504e+07,-73.4921
5.11937e+07,-72.5877
5.12371e+07,-71.7815
5.12804e+07,-72.1885
5.13238e+07,-72.9466
5.13671e+07,-71.4909
5.14105e+07,-73.2145
5.14538e+07,-71.5031
5.14972e+07,-73.8742
5.15405e+07,-72.5165
5.15839e+07,-73.1236
5.16272e+07,-72.1338
5.16706e+07,-73.6959
5.17139e+07,-71.8186
5.17573e+07,-72.5719
5.18006e+07,-72.2273
5.18439e+07,-73.6316
5.18873e+07,-72.5996
5.19306e+07,-73.0331
5.1974e+07,-71.0063
5.20173e+07,-72.7989
5.20607e+07,-72.6132
5.2104e+07,-72.9588
5.21474e+07,-72.8129
5.21907e+07,-72.8853
5.22341e+07,-71.8557
5.22774e+07,-73.4107
5.23208e+07,-72.403
5.23641e+07,-72.212
5.24075e+07,-72.3341
5.24508e+07,-73.3025
5.24942e+07,-71.9853
5.25375e+07,-71.9589
5.25809e+07,-72.2113
5.26242e+07,-71.8544
5.26676e+07,-73.4095
5.27109e+07,-73.4871
5.27543e+07,-73.0602
5.27976e+07,-72.8253
5.28409e+07,-73.1047
5.28843e+07,-72.0103
5.29276e+07,-72.9709
5.2971e+07,-72.0895
5.30143e+07,-72.5538
5.30577e+07,-72.7668
5.3101e+07,-72.7236
5.31444e+07,-72.8532
5.31877e+07,-73.6432
5.32311e+07,-70.9789
5.32744e+07,-72.6376
5.33178e+07,-72.7516
5.33611e+07,-73.0732
5.34045e+07,-73.1029
5.34478e+07,-72.6512
5.34912e+07,-72.2761
5.35345e+07,-73.2837
5.35779e+07,-72.7795
5.36212e+07,-73.7057
5.36646e+07,-72.6505
5.37079e+07,-72.7217
5.37513e+07,-72.9389
5.37946e+07,-74.1998
5.38379e+07,-72.4674
5.38813e+07,-72.0072
5.39246e+07,-72.4394
5.3968e+07,-74.0645
5.40113e+07,-71.902
5.40547e+07,-74.3185
5.4098e+07,-72.2606
5.41414e+07,-73.2513
5.41847e+07,-72.6631
5.42281e+07,-73.0555
5.42714e+07,-72.2059
5.43148e+07,-74.8314
5.43581e+07,-74.1472
5.44015e+07,-73.8813
5.44448e+07,-71.8228
5.44882e+07,-73.3728
5.45315e+07,-73.1143
5.45749e+07,-74.5965
5.46182e+07,-73.0543
5.46616e+07,-73.9958
5.47049e+07,-74.4029
5.47482e+07,-74.4376
5.47916e+07,-74.42
5.48349e+07,-74.5957
5.48783e+07,-74.3331
5.49216e+07,-72.9352
5.4965e+07,-74.4718
5.50083e+07,-74.3155
5.50517e+07,-74.7022
5.5095e+07,-73.814
5.51384e+07,-75.0318
5.51817e+07,-73.7813
5.52251e+07,-74.7017
5.52684e+07,-75.0128
5.53118e+07,-74.4009
5.53551e+07,-74.9567
5.53985e+07,-74.1103
5.54418e+07,-74.6472
5.54852e+07,-75.0682
5.55285e+07,-74.5935
5.55719e+07,-75.7913
5.56152e+07,-74.4348
5.56586e+07,-74.9188
5.57019e+07,-74.5929
5.57452e+07,-75.1806
5.57886e+07,-74.2616
5.58319e+07,-74.9552
5.58753e+07,-73.7629
5.59186e+07,-75.7699
5.5962e+07,-73.6344
5.60053e+07,-75.6284
5.60487e+07,-74.2437
5.6092e+07,-74.6095
5.61354e+07,-75.3328
5.61787e+07,-73.4294
5.62221e+07,-74.7165
5.62654e+07,-75.0283
5.63088e+07,-74.7705
5.63521e+07,-75.028
5.63955e+07,-75.6874
5.64388e+07,-73.1232
5.64822e+07,-74.4845
5.65255e+07,-73.6009
5.65689e+07,-74.7515
5.66122e+07,-73.8417
5.66556e+07,-73.6961
5.66989e+07,-74.8238
5.67422e+07,-74.5013
5.67856e+07,-74.2927
5.68289e+07,-74.7146
5.68723e+07,-75.0077
5.69156e+07,-74.0385
5.6959e+07,-74.6067
5.70023e+07,-73.288
5.70457e+07,-75.4861
5.7089e+07,-71.9184
5.71324e+07,-74.4826
5.71757e+07,-73.9055
5.72191e+07,-74.2231
5.72624e+07,-74.4298
5.73058e+07,-73.6463
5.73491e+07,-74.4645
5.73925e+07,-73.6621
5.74358e+07,-74.8218
5.74792e+07,-74.8035
5.75225e+07,-74.9318
5.75659e+07,-74.4465
5.76092e+07,-74.5874
5.76526e+07,-75.0806
5.76959e+07,-74.4637
5.77392e+07,-74.1371
5.77826e+07,-73.7414
5.78259e+07,-72.7811
5.78693e+07,-73.9038
5.79126e+07,-73.1795
5.7956e+07,-73.953
5.79993e+07,-73.9529
5.80427e+07,-74.4454
5.8086e+07,-73.2702
5.81294e+07,-74.0523
5.81727e+07,-73.6922
5.82161e+07,-74.3754
5.82594e+07,-74.5504
5.83028e+07,-74.5503
5.83461e+07,-74.5856
5.83895e+07,-73.0732
5.84328e+07,-74.8377
5.84762e+07,-74.4269
5.85195e+07,-74.3228
5.85629e+07,-75.5023
5.86062e+07,-74.3918
5.86495e+07,-74.8555
5.86929e+07,-74.2708
5.87362e+07,-74.9289
5.87796e+07,-75.0217
5.88229e+07,-74.3393
5.88663e+07,-74.4435
5.89096e+07,-73.6425
5.8953e+07,-73.9837
5.89963e+07,-74.5133
5.90397e+07,-74.6553
5.9083e+07,-73.7706
5.91264e+07,-74.2698
5.91697e+07,-75.0395
5.92131e+07,-75.0581
5.92564e+07,-74.7629
5.92998e+07,-73.6736
5.93431e+07,-75.2667
5.93865e+07,-73.2519
5.94298e+07,-74.1331
5.94732e+07,-73.9494
5.95165e+07,-74.1329
5.95599e+07,-73.1756
5.96032e+07,-73.5143
5.96465e+07,-72.9223
5.96899e+07,-73.4828
5.97332e+07,-73.145
5.97766e+07,-73.9652
5.98199e+07,-74.4237
5.98633e+07,-74.2168
5.99066e+07,-74.0815
5.995e+07,-73.8498
5.99933e+07,-74.0145
6.00367e+07,-75.1885
6.008e+07,-73.5921
6.01234e+07,-74.6707
6.01667e+07,-74.1145
6.02101e+07,-74.2672
6.02534e+07,-72.9209
6.02968e+07,-72.3117
6.03401e+07,-74.9622
6.03835e+07,-74.1477
6.04268e+07,-73.9307
6.04702e+07,-74.8879
6.05135e+07,-74.0801
6.05569e+07,-73.6546
6.06002e+07,-74.4744
6.06435e+07,-71.7034
6.06869e+07,-73.2946
6.07302e+07,-75.1869
6.07736e+07,-73.6861
6.08169e+07,-73.8477
6.08603e+07,-73.8476
6.09036e+07,-74.2314
6.0947e+07,-74.0958
6.09903e+07,-73.3246
6.10337e+07,-73.8146
6.1077e+07,-73.5581
6.11204e+07,-74.0285
6.11637e+07,-74.0785
6.12071e+07,-73.4168
6.12504e+07,-72.773
6.12938e+07,-74.8127
6.13371e+07,-73.3855
6.13805e+07,-73.5101
6.14238e+07,-71.7785
6.14672e+07,-73.5888
6.15105e+07,-72.1866
6.15539e+07,-73.8623
6.15972e+07,-73.4159
6.16405e+07,-73.7161
6.16839e+07,-73.5409
6.17272e+07,-73.9938
6.17706e+07,-73.3535
6.18139e+07,-73.6357
6.18573e+07,-72.3767
6.19006e+07,-73.5246
6.1944e+07,-72.6995
6.19873e+07,-73.7153
6.20307e+07,-72.7567
6.2074e+07,-72.3624
6.21174e+07,-71.4982
6.21607e+07,-73.4457
6.22041e+07,-73.2299
6.22474e+07,-73.0343
6.22908e+07,-73.1691
6.23341e+07,-73.9097
6.23775e+07,-74.3655
6.24208e+07,-70.7117
6.24642e+07,-73.1687
6.25075e+07,-74.0754
6.25509e+07,-74.2788
6.25942e+07,-72.989
6.26375e+07,-74.6111
6.26809e+07,-72.0102
6.27242e+07,-73.1681
6.27676e+07,-74.33
6.28109e+07,-75.2777
6.28543e+07,-74.8456
6.28976e+07,-74.1587
6.2941e+07,-73.5379
6.29843e+07,-74.0241
6.30277e+07,-74.4686
6.3071e+07,-75.049
6.31144e+07,-75.3738
6.31577e+07,-74.5035
6.32011e+07,-76.2112
6.32444e+07,-75.8952
6.32878e+07,-75.6103
6.33311e+07,-73.68
6.33745e+07,-75.067
6.34178e+07,-75.61
6.34612e+07,-75.3925
6.35045e+07,-76.2535
6.35478e+07,-75.2184
6.35912e+07,-74.5378
6.36345e+07,-76.1461
6.36779e+07,-75.4507
6.37212e+07,-75.0474
6.37646e+07,-75.5097
6.38079e+07,-76.0188
6.38513e+07,-76.0187
6.38946e+07,-76.0186
6.3938e+07,-76.5373
6.39813e+07,-75.9142
6.40247e+07,-76.0604
6.4068e+07,-75.9347
6.41114e+07,-76.3169
6.41547e+07,-75.5683
6.41981e+07,-75.7697
6.42414e+07,-73.6939
6.42848e+07,-75.6079
6.43281e+07,-75.4886
6.43715e+07,-75.4688
6.44148e+07,-75.4884
6.44582e+07,-75.4097
6.45015e+07,-75.5079
6.45448e+07,-76.1226
6.45882e+07,-76.3158
6.46315e+07,-75.0453
6.46749e+07,-76.2077
6.47182e+07,-75.8917
6.47616e+07,-74.8227
6.48049e+07,-75.5668
6.48483e+07,-75.8914
6.48916e+07,-76.4024
6.4935e+07,-76.1217
6.49783e+07,-75.6263
6.50217e+07,-75.1767
6.5065e+07,-75.3497
6.51084e+07,-75.829
6.51517e+07,-75.2529
6.51951e+07,-74.6587
6.52384e+07,-75.6659
6.52818e+07,-75.5259
6.53251e+07,-75.8079
6.53685e+07,-75.767
6.54118e+07,-75.3489
6.54552e+07,-75.3488
6.54985e+07,-75.3877
6.55418e+07,-74.0514
6.55852e+07,-75.7664
6.56285e+07,-74.604
6.56719e+07,-74.9681
6.57152e+07,-74.3749
6.57586e+07,-75.2707
6.58019e+07,-75.8685
6.58453e+07,-75.9305
6.58886e+07,-75.9097
6.5932e+07,-75.1365
6.59753e+07,-75.2318
6.60187e+07,-75.2894
6.6062e+07,-74.2192
6.61054e+07,-74.5672
6.61487e+07,-75.136
6.61921e+07,-74.6923
6.62354e+07,-73.9169
6.62788e+07,-73.2203
6.63221e+07,-74.2185
6.63655e+07,-74.4782
6.64088e+07,-74.9292
6.64522e+07,-74.837
6.64955e+07,-75.4834
6.65388e+07,-74.6376
6.65822e+07,-75.4438
6.66255e+07,-74.7636
6.66689e+07,-75.211
6.67122e+07,-74.495
6.67556e+07,-73.85
6.67989e+07,-75.1155
6.68423e+07,-74.8178
6.68856e+07,-75.3066
6.6929e+07,-75.2487
6.69723e+07,-73.4812
6.70157e+07,-74.6364
6.7059e+07,-73.6712
6.71024e+07,-74.9461
6.71457e+07,-75.5017
6.71891e+07,-74.1654
6.72324e+07,-75.9272
6.72758e+07,-74.5822
6.73191e+07,-75.2863
6.73625e+07,-75.7215
6.74058e+07,-74.4934
6.74491e+07,-75.5009
6.74925e+07,-74.5462
6.75358e+07,-74.8896
6.75792e+07,-74.653
6.76225e+07,-74.7794
6.76659e+07,-75.2662
6.77092e+07,-75.2276
6.77526e+07,-73.4324
6.77959e+07,-75.3045
6.78393e+07,-74.9816
6.78826e+07,-75.2657
6.7926e+07,-74.4922
6.79693e+07,-76.3078
6.80127e+07,-74.7603
6.8056e+07,-73.6208
6.80994e+07,-75.2844
6.81427e+07,-74.0285
6.81861e+07,-75.4992
6.82294e+07,-75.5986
6.82728e+07,-74.5799
6.83161e+07,-76.2636
6.83595e+07,-74.334
6.84028e+07,-74.265
6.84461e+07,-74.9059
6.84895e+07,-75.578
6.85328e+07,-76.0497
6.85762e+07,-75.4785
6.86195e+07,-75.1112
6.86629e+07,-75.1681
6.87062e+07,-75.7387
6.87496e+07,-74.7404
6.87929e+07,-74.8132
6.88363e+07,-75.4385
6.88796e+07,-74.6499
6.8923e+07,-74.9233
6.89663e+07,-73.0482
6.90097e+07,-74.9975
6.9053e+07,-75.6167
6.90964e+07,-75.7378
6.91397e+07,-75.4969
6.91831e+07,-75.7376
6.92264e+07,-73.8278
6.92698e+07,-75.0908
6.93131e+07,-74.2456
6.93565e+07,-75.1664
6.93998e+07,-74.83
6.94431e+07,-75.5558
6.94865e+07,-74.16
6.95298e+07,-74.9404
6.95732e+07,-76.3913
6.96165e+07,-75.8594
6.96599e+07,-75.9007
6.97032e+07,-73.0315
6.97466e+07,-75.6552
6.97899e+07,-75.7158
6.98333e+07,-75.5349
6.98766e+07,-75.3189
6.992e+07,-75.7562
6.99633e+07,-75.1459
7.00067e+07,-73.9741
7.005e+07,-73.5368
7.00934e+07,-74.4168
7.01367e+07,-74.865
7.01801e+07,-74.5576
7.02234e+07,-74.9946
7.02668e+07,-75.1643
7.03101e+07,-75.3179
7.03535e+07,-73.7763
7.03968e+07,-74.7729
7.04401e+07,-75.9822
7.04835e+07,-74.8092
7.05268e+07,-74.5923
7.05702e+07,-75.7139
7.06135e+07,-74.9378
7.06569e+07,-69.4431
7.07002e+07,-72.9846
7.07436e+07,-74.6815
7.07869e+07,-75.2203
7.08303e+07,-75.6527
7.08736e+07,-74.7173
7.0917e+07,-75.2585
7.09603e+07,-74.9928
7.10037e+07,-71.7044
7.1047e+07,-76.3005
7.10904e+07,-75.733
7.11337e+07,-75.258
7.11771e+07,-75.3352
7.12204e+07,-75.0673
7.12638e+07,-73.3002
7.13071e+07,-74.7344
7.13505e+07,-73.9378
7.13938e+07,-76.1064
7.14371e+07,-75.9798
7.14805e+07,-76.4307
7.15238e+07,-76.0426
7.15672e+07,-76.5638
7.16105e+07,-74.9726
7.16539e+07,-74.2059
7.16972e+07,-75.3535
7.17406e+07,-75.8338
7.17839e+07,-74.898
7.18273e+07,-75.0282
7.18706e+07,-76.0629
7.1914e+07,-75.5898
7.19573e+07,-74.8976
7.20007e+07,-74.8239
7.2044e+07,-76.6301
7.20874e+07,-75.0089
7.21307e+07,-74.7143
7.21741e+07,-75.3914
7.22174e+07,-74.805
7.22608e+07,-75.2553
7.23041e+07,-75.7505
7.23474e+07,-75.4105
7.23908e+07,-76.0617
7.24341e+07,-74.878
7.24775e+07,-75.8527
7.25208e+07,-73.9682
7.25642e+07,-73.7873
7.26075e+07,-75.2352
7.26509e+07,-75.293
7.26942e+07,-75.8935
7.27376e+07,-75.7495
7.27809e+07,-75.9349
7.28243e+07,-76.0818
7.28676e+07,-75.5277
7.2911e+07,-76.8104
7.29543e+07,-76.0182
7.29977e+07,-74.2541
7.3041e+07,-75.976
7.30844e+07,-74.8764
7.31277e+07,-74.8395
7.31711e+07,-75.6069
7.32144e+07,-74.5682
7.32578e+07,-75.5667
7.33011e+07,-75.3302
7.33444e+07,-76.1443
7.33878e+07,-76.3603
7.34311e+07,-76.2084
7.34745e+07,-74.9125
7.35178e+07,-76.2946
7.35612e+07,-74.9308
7.36045e+07,-75.2137
7.36479e+07,-75.1753
7.36912e+07,-75.2519
7.37346e+07,-75.9953
7.37779e+07,-73.6073
7.38213e+07,-75.6054
7.38646e+07,-75.4069
7.3908e+07,-75.1176
7.39513e+07,-75.2899
7.39947e+07,-76.1856
7.4038e+07,-75.3674
7.40814e+07,-75.2317
7.41247e+07,-75.7666
7.41681e+07,-75.4258
7.42114e+07,-75.4454
7.42548e+07,-75.193
7.42981e+07,-75.7458
7.43414e+07,-74.3371
7.43848e+07,-74.5476
7.44281e+07,-74.966
7.44715e+07,-74.1651
7.45148e+07,-74.3194
7.45582e+07,-75.0782
7.46015e+07,-74.9283
7.46449e+07,-74.781
7.46882e+07,-74.7263
7.47316e+07,-74.9095
7.47749e+07,-75.2109
7.48183e+07,-75.0965
7.48616e+07,-75.5032
7.4905e+07,-73.7492
7.49483e+07,-75.9506
7.49917e+07,-73.3686
7.5035e+07,-74.4929
7.50784e+07,-74.8717
7.51217e+07,-76.0976
7.51651e+07,-74.7252
7.52084e+07,-73.1839
7.52518e+07,-75.542
7.52951e+07,-74.3003
7.53384e+07,-75.3839
7.53818e+07,-75.0198
7.54251e+07,-75.5815
7.54685e+07,-76.4434
7.55118e+07,-73.9611
7.55552e+07,-73.9776
7.55985e+07,-73.5079
7.56419e+07,-75.0192
7.56852e+07,-74.0609
7.57286e+07,-75.0943
7.57719e+07,-75.3049
7.58153e+07,-75.5606
7.58586e+07,-74.7599
7.5902e+07,-74.094
7.59453e+07,-74.7779
7.59887e+07,-74.1786
7.6032e+07,-74.1106
7.60754e+07,-75.8441
7.61187e+07,-73.7788
7.61621e+07,-75.4408
7.62054e+07,-76.1804
7.62487e+07,-75.4603
7.62921e+07,-75.6196
7.63354e+07,-76.1159
7.63788e+07,-75.8022
7.64221e+07,-74.9799
7.64655e+07,-76.4189
7.65088e+07,-74.8683
7.65522e+07,-75.0735
7.65955e+07,-75.5388
7.66389e+07,-75.7199
7.66822e+07,-75.4593
7.67256e+07,-75.8632
7.67689e+07,-76.1149
7.68123e+07,-75.5983
7.68556e+07,-75.4391
7.6899e+07,-75.1485
7.69423e+07,-76.0087
7.69857e+07,-75.0914
7.7029e+07,-76.1999
7.70724e+07,-75.4386
7.71157e+07,-75.0157
7.71591e+07,-75.321
7.72024e+07,-75.9661
7.72457e+07,-74.5764
7.72891e+07,-74.47
7.73324e+07,-76.9863
7.73758e+07,-75.5369
7.74191e+07,-74.7199
7.74625e+07,-75.4377
7.75058e+07,-75.3983
7.75492e+07,-75.477
7.75925e+07,-75.6165
7.76359e+07,-76.0916
7.76792e+07,-74.9025
7.77226e+07,-76.1553
7.77659e+07,-75.8401
7.78093e+07,-75.4172
7.78526e+07,-76.5938
7.7896e+07,-75.7577
7.79393e+07,-75.7576
7.79827e+07,-75.9225
7.8026e+07,-76.4594
7.80694e+07,-75.2995
7.81127e+07,-74.4153
7.81561e+07,-75.6555
7.81994e+07,-75.2412
7.82427e+07,-75.615
7.82861e+07,-76.3706
7.83294e+07,-75.655
7.83728e+07,-75.7361
7.84161e+07,-76.1537
7.84595e+07,-76.1109
7.85028e+07,-76.1108
7.85462e+07,-75.0687
7.85895e+07,-76.5025
7.86329e+07,-76.4138
7.86762e+07,-74.7897
7.87196e+07,-76.304
7.87629e+07,-75.0682
7.88063e+07,-75.5137
7.88496e+07,-75.2783
7.8893e+07,-76.8657
7.89363e+07,-75.4342
7.89797e+07,-75.4736
7.9023e+07,-75.573
7.90664e+07,-76.195
7.91097e+07,-75.0486
7.91531e+07,-75.3553
7.91964e+07,-75.8161
7.92397e+07,-75.4335
7.92831e+07,-75.7748
7.93264e+07,-76.5454
7.93698e+07,-75.6123
7.94131e+07,-75.3352
7.94565e+07,-75.7132
7.94998e+07,-76.1511
7.95432e+07,-74.2902
7.95865e+07,-74.7876
7.96299e+07,-75.8151
7.96732e+07,-75.733
7.97166e+07,-75.8561
7.97599e+07,-75.6921
7.98033e+07,-75.1036
7.98466e+07,-75.8146
7.989e+07,-75.4912
7.99333e+07,-75.7528
7.99767e+07,-75.3533
8.002e+07,-76.6791
8.00634e+07,-75.5107
8.01067e+07,-75.9592
8.01501e+07,-74.7862
8.01934e+07,-76.1068
8.02367e+07,-75.8343
8.02801e+07,-75.793
8.03234e+07,-75.5499
8.03668e+07,-76.1064
8.04101e+07,-75.4702
8.04535e+07,-76.2133
8.04968e+07,-74.8221
8.05402e+07,-75.7924
8.05835e+07,-75.4896
8.06269e+07,-76.0421
8.06702e+07,-75.1777
8.07136e+07,-75.6494
8.07569e+07,-75.0446
8.08003e+07,-74.8397
8.08436e+07,-76.4749
8.0887e+07,-75.9574
8.09303e+07,-76.3206
8.09737e+07,-75.5684
8.1017e+07,-74.4788
8.10604e+07,-75.8944
8.11037e+07,-76.0834
8.1147e+07,-75.9987
8.11904e+07,-75.832
8.12337e+07,-75.1764
8.12771e+07,-75.2919
8.13204e+07,-75.9773
8.13638e+07,-75.3111
8.14071e+07,-75.1188
8.14505e+07,-75.5672
8.14938e+07,-75.5272
8.15372e+07,-75.3107
8.15805e+07,-75.6473
8.16239e+07,-75.5668
8.16672e+07,-74.6196
8.17106e+07,-75.5267
8.17539e+07,-75.6671
8.17973e+07,-75.0989
8.18406e+07,-75.6669
8.1884e+07,-74.637
8.19273e+07,-75.8509
8.19707e+07,-75.7276
8.2014e+07,-75.606
8.20574e+07,-75.4663
8.21007e+07,-75.9755
8.2144e+07,-76.1663
8.21874e+07,-75.5855
8.22307e+07,-75.9542
8.22741e+07,-75.2123
8.23174e+07,-75.8707
8.23608e+07,-73.8951
8.24041e+07,-74.7992
8.24475e+07,-75.0973
8.24908e+07,-76.2951
8.25342e+07,-75.6856
8.25775e+07,-76.3604
8.26209e+07,-75.6449
8.26642e+07,-75.0779
8.27076e+07,-75.5044
8.27509e+07,-75.7666
8.27943e+07,-76.1219
8.28376e+07,-76.0369
8.2881e+07,-75.5239
8.29243e+07,-74.725
8.29677e+07,-76.1429
8.3011e+07,-75.8277
8.30544e+07,-74.4036
8.30977e+07,-75.2489
8.3141e+07,-74.871
8.31844e+07,-75.4439
8.32277e+07,-76.0571
8.32711e+07,-74.1273
8.33144e+07,-76.0569
8.33578e+07,-75.2869
8.34011e+07,-74.4731
8.34445e+07,-75.6631
8.34878e+07,-75.6428
8.35312e+07,-76.1845
8.35745e+07,-76.2925
8.36179e+07,-74.5613
8.36612e+07,-74.9627
8.37046e+07,-75.325
8.37479e+07,-75.3249
8.37913e+07,-75.7641
8.38346e+07,-75.4423
8.3878e+07,-74.3667
8.39213e+07,-74.5784
8.39647e+07,-75.4026
8.4008e+07,-75.3438
8.40514e+07,-75.5012
8.40947e+07,-75.6414
8.4138e+07,-76.0127
8.41814e+07,-75.9496
8.42247e+07,-76.076
8.42681e+07,-74.8315
8.43114e+07,-74.9239
8.43548e+07,-73.6141
8.43981e+07,-75.8657
8.44415e+07,-74.7395
8.44848e+07,-75.0547
8.45282e+07,-75.7829
8.45715e+07,-76.2684
8.46149e+07,-75.7417
8.46582e+07,-75.8444
8.47016e+07,-75.4403
8.47449e+07,-75.9273
8.47883e+07,-76.0959
8.48316e+07,-76.2678
8.4875e+07,-75.3612
8.49183e+07,-76.2676
8.49617e+07,-76.4208
8.5005e+07,-76.465
8.50483e+07,-74.5758
8.50917e+07,-75.5186
8.5135e+07,-74.0217
8.51784e+07,-75.6996
8.52217e+07,-76.3323
8.52651e+07,-75.989
8.53084e+07,-75.9678
8.53518e+07,-76.332
8.53951e+07,-75.7809
8.54385e+07,-74.1052
8.54818e+07,-75.3403
8.55252e+07,-75.9255
8.55685e+07,-75.6379
8.56119e+07,-74.3277
8.56552e+07,-75.9461
8.56986e+07,-75.1467
8.57419e+07,-75.7595
8.57853e+07,-76.5975
8.58286e+07,-76.051
8.5872e+07,-74.8831
8.59153e+07,-75.9455
8.59587e+07,-77.0367
8.6002e+07,-76.265
8.60453e+07,-75.9661
8.60887e+07,-75.2999
8.6132e+07,-76.7561
8.61754e+07,-75.8408
8.62187e+07,-76.1566
8.62621e+07,-76.2644
8.63054e+07,-75.2606
8.63488e+07,-75.9235
8.63921e+07,-76.5511
8.64355e+07,-77.3251
8.64788e+07,-75.5154
8.65222e+07,-76.6637
8.65655e+07,-74.9
8.66089e+07,-76.0279
8.66522e+07,-76.439
8.66956e+07,-75.6757
8.67389e+07,-75.5347
8.67823e+07,-75.4156
8.68256e+07,-75.4155
8.6869e+07,-76.9401
8.69123e+07,-75.6752
8.69557e+07,-75.5742
8.6999e+07,-76.5721
8.70423e+07,-75.3171
8.70857e+07,-75.3952
8.7129e+07,-75.8593
8.71724e+07,-76.4156
8.72157e+07,-76.5267
8.72591e+07,-76.1756
8.73024e+07,-75.8382
8.73458e+07,-75.6945
8.73891e+07,-76.3053
8.74325e+07,-75.9001
8.74758e+07,-76.2615
8.75192e+07,-76.2181
8.75625e+07,-76.2831
8.76059e+07,-75.633
8.76492e+07,-75.755
8.76926e+07,-76.9147
8.77359e+07,-76.5704
8.77793e+07,-75.3543
8.78226e+07,-76.3261
8.7866e+07,-76.798
8.79093e+07,-76.1956
8.79527e+07,-75.1988
8.7996e+07,-76.0247
8.80393e+07,-75.9195
8.80827e+07,-76.2601
8.8126e+07,-76.3035
8.81694e+07,-76.5919
8.82127e+07,-77.2233
8.82561e+07,-75.8981
8.82994e+07,-76.5465
8.83428e+07,-75.7329
8.83861e+07,-75.6717
8.84295e+07,-75.392
8.84728e+07,-76.4791
8.85162e+07,-75.7529
8.85595e+07,-75.8352
8.86029e+07,-74.9884
8.86462e+07,-76.7501
8.86896e+07,-76.412
8.87329e+07,-76.0018
8.87763e+07,-76.1505
8.88196e+07,-76.8654
8.8863e+07,-75.4107
8.89063e+07,-75.5495
8.89496e+07,-75.2737
8.8993e+07,-75.7109
8.90363e+07,-76.1285
8.90797e+07,-76.001
8.9123e+07,-75.6903
8.91664e+07,-75.7925
8.92097e+07,-75.8336
8.92531e+07,-76.5219
8.92964e+07,-75.2729
8.93398e+07,-77.2449
8.93831e+07,-75.4687
8.94265e+07,-75.8125
8.94698e+07,-76.1919
8.95132e+07,-74.9863
8.95565e+07,-75.4882
8.95999e+07,-76.2782
8.96432e+07,-76.1057
8.96866e+07,-75.5677
8.97299e+07,-75.0234
8.97733e+07,-74.7634
8.98166e+07,-75.3691
8.986e+07,-75.2715
8.99033e+07,-75.2908
8.99466e+07,-75.5872
8.999e+07,-75.8111
9.00333e+07,-75.7085
9.00767e+07,-75.271
9.012e+07,-75.7902
9.01634e+07,-76.2335
9.02067e+07,-75.2127
9.02501e+07,-76.3862
9.02934e+07,-76.5643
9.03368e+07,-76.7461
9.03801e+07,-76.0402
9.04235e+07,-75.8101
9.04668e+07,-74.474
9.05102e+07,-75.0782
9.05535e+07,-75.1543
9.05969e+07,-76.3634
9.06402e+07,-76.2323
9.06836e+07,-75.5253
9.07269e+07,-76.1459
9.07703e+07,-75.6054
9.08136e+07,-75.1155
9.0857e+07,-76.2753
9.09003e+07,-76.6761
9.09436e+07,-75.2303
9.0987e+07,-75.4848
9.10303e+07,-76.2966
9.10737e+07,-75.8085
9.1117e+07,-76.1665
9.11604e+07,-76.4061
9.12037e+07,-76.4503
9.12471e+07,-75.5841
9.12904e+07,-76.4947
9.13338e+07,-75.4443
9.13771e+07,-75.0762
9.14205e+07,-76.3614
9.14638e+07,-75.1713
9.15072e+07,-76.1871
9.15505e+07,-75.7663
9.15939e+07,-76.1011
9.16372e+07,-74.668
9.16806e+07,-75.1325
9.17239e+07,-76.516
9.17673e+07,-75.5829
9.18106e+07,-75.7042
9.1854e+07,-76.0579
9.18973e+07,-75.6431
9.19406e+07,-75.8479
9.1984e+07,-75.7447
9.20273e+07,-76.36
9.20707e+07,-76.719
9.2114e+07,-75.1506
9.21574e+07,-76.2722
9.22007e+07,-75.5018
9.22441e+07,-76.1638
9.22874e+07,-75.8886
9.23308e+07,-76.6727
9.23741e+07,-75.6826
9.24175e+07,-77.0214
9.24608e+07,-75.8466
9.25042e+07,-76.2063
9.25475e+07,-75.6415
9.25909e+07,-75.7843
9.26342e+07,-76.206
9.26776e+07,-76.2275
9.27209e+07,-77.1161
9.27643e+07,-76.536
9.28076e+07,-76.184
9.2851e+07,-77.0918
9.28943e+07,-75.7836
9.29376e+07,-77.3836
9.2981e+07,-75.7629
9.30243e+07,-75.9706
9.30677e+07,-77.3586
9.3111e+07,-76.2917
9.31544e+07,-76.1832
9.31977e+07,-76.4456
9.32411e+07,-76.4233
9.32844e+07,-75.5793
9.33278e+07,-75.4396
9.33711e+07,-75.0714
9.34145e+07,-76.0118
9.34578e+07,-76.3346
9.35012e+07,-76.0965
9.35445e+07,-76.8542
9.35879e+07,-77.0186
9.36312e+07,-76.9006
9.36746e+07,-77.2347
9.37179e+07,-77.3078
9.37613e+07,-76.312
9.38046e+07,-75.885
9.38479e+07,-77.2831
9.38913e+07,-75.4185
9.39346e+07,-76.3996
9.3978e+07,-76.3995
9.40213e+07,-76.0104
9.40647e+07,-76.3113
9.4108e+07,-77.1368
9.41514e+07,-76.224
9.41947e+07,-76.4655
9.42381e+07,-76.5775
9.42814e+07,-76.3108
9.43248e+07,-76.899
9.43681e+07,-76.9458
9.44115e+07,-76.3543
9.44548e+07,-77.1601
9.44982e+07,-75.2025
9.45415e+07,-76.354
9.45849e+07,-76.5992
9.46282e+07,-77.6052
9.46716e+07,-77.0875
9.47149e+07,-76.7587
9.47583e+07,-75.8619
9.48016e+07,-76.7126
9.48449e+07,-77.0632
9.48883e+07,-76.8277
9.49316e+07,-77.2317
9.4975e+07,-76.5083
9.50183e+07,-76.222
9.50617e+07,-77.0627
9.5105e+07,-77.015
9.51484e+07,-76.6433
9.51917e+07,-76.8503
9.52351e+07,-75.6758
9.52784e+07,-75.3758
9.53218e+07,-76.3742
9.53651e+07,-75.923
9.54085e+07,-76.4849
9.54518e+07,-76.1562
9.54952e+07,-75.7159
9.55385e+07,-76.507
9.55819e+07,-76.3516
9.56252e+07,-77.527
9.56686e+07,-76.4176
9.57119e+07,-76.1771
9.57553e+07,-76.6418
9.57986e+07,-76.5288
9.58419e+07,-75.901
9.58853e+07,-76.4838
9.59286e+07,-76.7099
9.5972e+07,-76.0694
9.60153e+07,-76.1764
9.60587e+07,-76.5506
9.6102e+07,-76.8481
9.61454e+07,-76.4164
9.61887e+07,-75.5925
9.62321e+07,-76.5727
9.62754e+07,-76.7781
9.63188e+07,-76.5951
9.63621e+07,-74.7478
9.64055e+07,-74.1643
9.64488e+07,-75.9835
9.64922e+07,-75.2558
9.65355e+07,-76.3273
9.65789e+07,-76.5269
9.66222e+07,-75.816
9.66656e+07,-76.5943
9.67089e+07,-76.0251
9.67523e+07,-76.6168
9.67956e+07,-76.0249
9.68389e+07,-75.5107
9.68823e+07,-75.1393
9.69256e+07,-75.9403
9.6969e+07,-75.7946
9.70123e+07,-76.0456
9.70557e+07,-77.0104
9.7099e+07,-76.0667
9.71424e+07,-74.4229
9.71857e+07,-75.8147
9.72291e+07,-76.2167
9.72724e+07,-76.0238
9.73158e+07,-76.3036
9.73591e+07,-76.2164
9.74025e+07,-76.57
9.74458e+07,-75.8556
9.74892e+07,-76.2813
9.75325e+07,-76.5246
9.75759e+07,-76.1727
9.76192e+07,-76.502
9.76626e+07,-76.194
9.77059e+07,-76.1939
9.77492e+07,-75.9804
9.77926e+07,-76.3904
9.78359e+07,-75.4487
9.78793e+07,-75.3893
9.79226e+07,-75.917
9.7966e+07,-76.8204
9.80093e+07,-75.7921
9.80527e+07,-76.1931
9.8096e+07,-76.0856
9.81394e+07,-76.5908
9.81827e+07,-76.0854
9.82261e+07,-75.9582
9.82694e+07,-75.9162
9.83128e+07,-76.0213
9.83561e+07,-75.8742
9.83995e+07,-76.9599
9.84428e+07,-75.7705
9.84862e+07,-75.9787
9.85295e+07,-76.2136
9.85729e+07,-74.3668
9.86162e+07,-75.5868
9.86596e+07,-75.7494
9.87029e+07,-75.8942
9.87462e+07,-75.6268
9.87896e+07,-75.5061
9.88329e+07,-75.6266
9.88763e+07,-75.9357
9.89196e+07,-73.1125
9.8963e+07,-76.1694
9.90063e+07,-76.2559
9.90497e+07,-76.1692
9.9093e+07,-75.4457
9.91364e+07,-76.2774
9.91797e+07,-75.914
9.92231e+07,-75.9559
9.92664e+07,-75.3271
9.93098e+07,-75.8511
9.93531e+07,-75.4055
9.93965e+07,-75.2489
9.94398e+07,-76.5426
9.94832e+07,-75.8507
9.95265e+07,-73.6263
9.95699e+07,-76.2546
9.96132e+07,-75.809
9.96566e+07,-76.1033
9.96999e+07,-75.3653
9.97432e+07,-76.1245
9.97866e+07,-75.85
9.98299e+07,-75.1132
9.98733e+07,-75.5637
9.99166e+07,-76.2974
9.996e+07,-73.6736
1.00003e+08,-73.5133
1.00047e+08,-71.1022
1.0009e+08,-75.0366
1.00133e+08,-75.8492
1.00177e+08,-75.9536
1.0022e+08,-75.7869
1.00263e+08,-76.1663
1.00307e+08,-75.828
1.0035e+08,-75.4031
1.00393e+08,-75.9111
1.00437e+08,-75.5022
1.0048e+08,-75.227
1.00524e+08,-75.7861
1.00567e+08,-76.7218
1.0061e+08,-76.7678
1.00654e+08,-75.5618
1.00697e+08,-75.9524
1.0074e+08,-75.827
1.00784e+08,-75.622
1.00827e+08,-76.3832
1.0087e+08,-74.7371
1.00914e+08,-74.737
1.00957e+08,-75.1296
1.01e+08,-75.6824
1.01044e+08,-75.4411
1.01087e+08,-75.0531
1.0113e+08,-75.723
1.01174e+08,-75.4606
1.01217e+08,-75.2059
1.0126e+08,-75.9721
1.01304e+08,-74.7544
1.01347e+08,-75.6004
1.0139e+08,-74.663
1.01434e+08,-74.7724
1.01477e+08,-73.7187
1.01521e+08,-75.2439
1.01564e+08,-75.8458
1.01607e+08,-75.8665
1.01651e+08,-75.8872
1.01694e+08,-76.1629
1.01737e+08,-75.6197
1.01781e+08,-73.4932
1.01824e+08,-75.3602
1.01867e+08,-76.1841
1.01911e+08,-75.9916
1.01954e+08,-74.1682
1.01997e+08,-73.6526
1.02041e+08,-75.2426
1.02084e+08,-76.1836
1.02127e+08,-75.5382
1.02171e+08,-75.1651
1.02214e+08,-75.2035
1.02257e+08,-75.7614
1.02301e+08,-75.5178
1.02344e+08,-75.3787
1.02387e+08,-76.1613
1.02431e+08,-76.2478
1.02474e+08,-75.7609
1.02518e+08,-75.6179
1.02561e+08,-76.4012
1.02604e+08,-75.3781
1.02648e+08,-75.7194
1.02691e+08,-74.8062
1.02734e+08,-75.1063
1.02778e+08,-75.7602
1.02821e+08,-74.4624
1.02864e+08,-76.0318
1.02908e+08,-74.4092
1.02951e+08,-75.2405
1.02994e+08,-76.8317
1.03038e+08,-76.3119
1.03081e+08,-76.6929
1.03124e+08,-76.2898
1.03168e+08,-75.8628
1.03211e+08,-75.8627
1.03254e+08,-76.2895
1.03298e+08,-75.8002
1.03341e+08,-76.0732
1.03384e+08,-76.5108
1.03428e+08,-76.377
1.03471e+08,-76.3991
1.03515e+08,-75.3956
1.03558e+08,-75.0473
1.03601e+08,-76.094
1.03645e+08,-76.3105
1.03688e+08,-76.3986
1.03731e+08,-76.1365
1.03775e+08,-75.2774
1.03818e+08,-76.1794
1.03861e+08,-73.7947
1.03905e+08,-76.2443
1.03948e+08,-75.6551
1.03991e+08,-76.3316
1.04035e+08,-75.7778
1.04078e+08,-76.8292
1.04121e+08,-74.7844
1.04165e+08,-76.9226
1.04208e+08,-76.899
1.04251e+08,-76.6444
1.04295e+08,-75.3741
1.04338e+08,-76.0922
1.04381e+08,-73.7281
1.04425e+08,-75.5932
1.04468e+08,-75.9645
1.04512e+08,-74.7284
1.04555e+08,-75.8803
1.04598e+08,-75.7559
1.04642e+08,-76.8512
1.04685e+08,-75.5724
1.04728e+08,-75.7968
1.04772e+08,-76.396
1.04815e+08,-76.3517
1.04858e+08,-75.4917
1.04902e+08,-76.8505
1.04945e+08,-75.7345
1.04988e+08,-75.8793
1.05032e+08,-77.3549
1.05075e+08,-76.1119
1.05118e+08,-75.0436
1.05162e+08,-75.9839
1.05205e+08,-76.7569
1.05248e+08,-75.8996
1.05292e+08,-76.5965
1.05335e+08,-75.7336
1.05378e+08,-76.3283
1.05422e+08,-76.219
1.05465e+08,-76.5508
1.05509e+08,-76.5733
1.05552e+08,-74.0914
1.05595e+08,-75.3121
1.05639e+08,-75.45
1.05682e+08,-76.4829
1.05725e+08,-76.6638
1.05769e+08,-76.1748
1.05812e+08,-75.4695
1.05855e+08,-76.153
1.05899e+08,-75.94
1.05942e+08,-74.9849
1.05985e+08,-75.7938
1.06029e+08,-75.7114
1.06072e+08,-75.7318
1.06115e+08,-75.5288
1.06159e+08,-74.5615
1.06202e+08,-75.5889
1.06245e+08,-75.9182
1.06289e+08,-76.9411
1.06332e+08,-76.1735
1.06375e+08,-75.1359
1.06419e+08,-76.526
1.06462e+08,-76.26
1.06506e+08,-76.481
1.06549e+08,-77.2774
1.06592e+08,-75.6488
1.06636e+08,-75.813
1.06679e+08,-75.5074
1.06722e+08,-73.9873
1.06766e+08,-74.7966
1.06809e+08,-75.5071
1.06852e+08,-76.9871
1.06896e+08,-75.0583
1.06939e+08,-76.3027
1.06982e+08,-75.9796
1.07026e+08,-76.5246
1.07069e+08,-74.8513
1.07112e+08,-76.6376
1.07156e+08,-76.3682
1.07199e+08,-76.592
1.07242e+08,-75.5663
1.07286e+08,-75.5864
1.07329e+08,-76.1065
1.07372e+08,-74.7034
1.07416e+08,-75.9786
1.07459e+08,-76.5687
1.07503e+08,-76.9619
1.07546e+08,-76.3894
1.07589e+08,-76.891
1.07633e+08,-76.192
1.07676e+08,-75.0375
1.07719e+08,-76.3669
1.07763e+08,-76.2134
1.07806e+08,-75.8518
1.07849e+08,-76.5227
1.07893e+08,-76.2785
1.07936e+08,-75.9352
1.07979e+08,-75.5847
1.08023e+08,-76.4327
1.08066e+08,-76.3882
1.08109e+08,-75.8303
1.08153e+08,-75.6248
1.08196e+08,-75.5842
1.08239e+08,-76.019
1.08283e+08,-75.7884
1.08326e+08,-76.5666
1.08369e+08,-76.4319
1.08413e+08,-76.5213
1.08456e+08,-76.589
1.08499e+08,-75.6037
1.08543e+08,-75.9338
1.08586e+08,-76.9121
1.0863e+08,-75.7258
1.08673e+08,-76.6568
1.08716e+08,-76.1247
1.0876e+08,-76.5883
1.08803e+08,-75.9331
1.08846e+08,-76.9351
1.0889e+08,-75.7663
1.08933e+08,-76.3861
1.08976e+08,-75.4222
1.0902e+08,-76.8876
1.09063e+08,-77.2715
1.09106e+08,-76.3415
1.0915e+08,-76.3635
1.09193e+08,-76.1021
1.09236e+08,-76.7243
1.0928e+08,-76.452
1.09323e+08,-76.1664
1.09366e+08,-76.724
1.0941e+08,-76.9102
1.09453e+08,-75.9316
1.09496e+08,-75.9315
1.0954e+08,-76.2309
1.09583e+08,-75.6825
1.09627e+08,-76.5184
1.0967e+08,-76.9331
1.09713e+08,-76.7462
1.09757e+08,-77.2453
1.098e+08,-76.8156
1.09843e+08,-76.7922
1.09887e+08,-75.6614
1.0993e+08,-77.5183
1.09973e+08,-76.6309
1.10017e+08,-76.7918
1.1006e+08,-76.9322
1.10103e+08,-77.7482
1.10147e+08,-77.3924
1.1019e+08,-76.9083
1.10233e+08,-76.6989
1.10277e+08,-76.8612
1.1032e+08,-76.1857
1.10363e+08,-76.8376
1.10407e+08,-76.6985
1.1045e+08,-75.6805
1.10493e+08,-75.4584
1.10537e+08,-75.8245
1.1058e+08,-76.5613
1.10624e+08,-76.4265
1.10667e+08,-75.6595
1.1071e+08,-76.8836
1.10754e+08,-76.3156
1.10797e+08,-77.2919
1.1084e+08,-77.0972
1.10884e+08,-76.8597
1.10927e+08,-75.4574
1.1097e+08,-76.8595
1.11014e+08,-76.5377
1.11057e+08,-77.1208
1.111e+08,-75.9487
1.11144e+08,-76.56
1.11187e+08,-76.076
1.1123e+08,-76.8122
1.11274e+08,-76.2268
1.11317e+08,-76.0971
1.1136e+08,-76.9055
1.11404e+08,-75.3967
1.11447e+08,-76.7421
1.1149e+08,-77.5653
1.11534e+08,-75.3176
1.11577e+08,-76.2698
1.11621e+08,-76.8346
1.11664e+08,-76.4241
1.11707e+08,-76.6268
1.11751e+08,-76.2257
1.11794e+08,-76.6038
1.11837e+08,-75.2777
1.11881e+08,-76.182
1.11924e+08,-75.842
1.11967e+08,-76.2034
1.12011e+08,-76.2687
1.12054e+08,-75.8626
1.12097e+08,-75.1032
1.12141e+08,-75.5346
1.12184e+08,-76.6713
1.12227e+08,-76.5348
1.12271e+08,-76.4449
1.12314e+08,-76.2462
1.12357e+08,-76.4447
1.12401e+08,-76.7399
1.12444e+08,-76.4222
1.12487e+08,-75.1023
1.12531e+08,-76.4443
1.12574e+08,-76.8557
1.12618e+08,-77.1654
1.12661e+08,-76.579
1.12704e+08,-75.4333
1.12748e+08,-76.7622
1.12791e+08,-75.9658
1.12834e+08,-75.0063
1.12878e+08,-76.7157
1.12921e+08,-76.3324
1.12964e+08,-75.2167
1.13008e+08,-75.1011
1.13051e+08,-75.5727
1.13094e+08,-75.902
1.13138e+08,-75.4921
1.13181e+08,-76.0712
1.13224e+08,-76.0072
1.13268e+08,-76.3096
1.13311e+08,-76.8073
1.13354e+08,-76.3978
1.13398e+08,-75.2351
1.13441e+08,-75.7555
1.13484e+08,-75.8801
1.13528e+08,-76.1348
1.13571e+08,-76.3973
1.13615e+08,-75.4909
1.13658e+08,-75.0804
1.13701e+08,-75.9215
1.13745e+08,-76.2646
1.13788e+08,-76.2427
1.13831e+08,-73.722
1.13875e+08,-76.3082
1.13918e+08,-76.6672
1.13961e+08,-75.3315
1.14005e+08,-75.5503
1.14048e+08,-75.7334
1.14091e+08,-76.4183
1.14135e+08,-76.4853
1.14178e+08,-76.9698
1.14221e+08,-76.6895
1.14265e+08,-75.6306
1.14308e+08,-76.3734
1.14351e+08,-75.8571
1.14395e+08,-76.0898
1.14438e+08,-76.5296
1.14481e+08,-75.6098
1.14525e+08,-76.4396
1.14568e+08,-75.5893
1.14612e+08,-73.8021
1.14655e+08,-77.0162
1.14698e+08,-77.064
1.14742e+08,-76.6424
1.14785e+08,-76.6652
1.14828e+08,-76.711
1.14872e+08,-75.7315
1.14915e+08,-76.9443
1.14958e+08,-77.5825
1.15002e+08,-75.8974
1.15045e+08,-74.5046
1.15088e+08,-76.8031
1.15132e+08,-76.2613
1.15175e+08,-75.309
1.15218e+08,-76.7563
1.15262e+08,-76.0877
1.15305e+08,-76.8492
1.15348e+08,-76.0234
1.15392e+08,-76.3487
1.15435e+08,-76.7096
1.15478e+08,-75.73
1.15522e+08,-76.195
1.15565e+08,-77.6321
1.15609e+08,-75.9803
1.15652e+08,-75.2882
1.15695e+08,-76.4145
1.15739e+08,-75.0184
1.15782e+08,-75.1328
1.15825e+08,-75.0372
1.15869e+08,-76.1725
1.15912e+08,-76.3696
1.15955e+08,-76.9419
1.15999e+08,-76.5711
1.16042e+08,-75.9581
1.16085e+08,-76.7311
1.16129e+08,-76.4358
1.16172e+08,-76.5029
1.16215e+08,-76.6618
1.16259e+08,-76.4132
1.16302e+08,-75.8943
1.16345e+08,-76.5476
1.16389e+08,-76.6385
1.16432e+08,-76.3905
1.16475e+08,-76.3904
1.16519e+08,-76.8933
1.16562e+08,-77.3772
1.16606e+08,-76.1275
1.16649e+08,-75.81
1.16692e+08,-75.8516
1.16736e+08,-76.3898
1.16779e+08,-75.8723
1.16822e+08,-77.035
1.16866e+08,-75.9351
1.16909e+08,-76.5237
1.16952e+08,-76.8453
1.16996e+08,-75.285
1.17039e+08,-76.7289
1.17082e+08,-76.5459
1.17126e+08,-76.5006
1.17169e+08,-75.9766
1.17212e+08,-75.9342
1.17256e+08,-75.0528
1.17299e+08,-77.0339
1.17342e+08,-76.8444
1.17386e+08,-76.0613
1.17429e+08,-75.976
1.17472e+08,-77.5257
1.17516e+08,-76.8909
1.17559e+08,-76.6129
1.17603e+08,-76.3655
1.17646e+08,-75.8912
1.17689e+08,-74.9382
1.17733e+08,-76.914
1.17776e+08,-76.82
1.17819e+08,-76.3872
1.17863e+08,-75.5009
1.17906e+08,-76.4093
1.17949e+08,-75.8069
1.17993e+08,-76.7266
1.18036e+08,-77.5244
1.18079e+08,-75.3809
1.18123e+08,-76.6115
1.18166e+08,-75.5606
1.18209e+08,-77.1765
1.18253e+08,-72.7102
1.18296e+08,-75.8896
1.18339e+08,-76.6797
1.18383e+08,-76.1882
1.18426e+08,-76.8653
1.18469e+08,-75.1843
1.18513e+08,-77.3726
1.18556e+08,-76.4748
1.186e+08,-76.7252
1.18643e+08,-77.2733
1.18686e+08,-75.9519
1.1873e+08,-76.9353
1.18773e+08,-76.9826
1.18816e+08,-76.6099
1.1886e+08,-75.4386
1.18903e+08,-77.1992
1.18946e+08,-75.7424
1.1899e+08,-76.4738
1.19033e+08,-77.0777
1.19076e+08,-77.0536
1.1912e+08,-76.7935
1.19163e+08,-76.4733
1.19206e+08,-77.1498
1.1925e+08,-77.7265
1.19293e+08,-76.9103
1.19336e+08,-75.9292
1.1938e+08,-76.078
1.19423e+08,-75.3777
1.19466e+08,-76.7927
1.1951e+08,-76.4725
1.19553e+08,-77.0765
1.19597e+08,-76.1853
1.1964e+08,-76.207
1.19683e+08,-76.6535
1.19727e+08,-76.0771
1.1977e+08,-75.9917
1.19813e+08,-76.2941
1.19857e+08,-76.6074
1.199e+08,-76.5392
1.19943e+08,-75.239
1.19987e+08,-76.1844
1.2003e+08,-76.5842
1.20073e+08,-76.1409
1.20117e+08,-76.1192
1.2016e+08,-76.1407
1.20203e+08,-76.3594
1.20247e+08,-76.3372
1.2029e+08,-76.315
1.20333e+08,-76.1836
1.20377e+08,-74.8198
1.2042e+08,-76.1401
1.20463e+08,-76.3588
1.20507e+08,-75.9899
1.2055e+08,-75.7386
1.20594e+08,-77.4426
1.20637e+08,-76.3584
1.2068e+08,-74.819
1.20724e+08,-76.2481
1.20767e+08,-76.3802
1.2081e+08,-75.4739
1.20854e+08,-76.3136
1.20897e+08,-74.6713
1.2094e+08,-75.1784
1.20984e+08,-76.0314
1.21027e+08,-76.8357
1.2107e+08,-75.4533
1.21114e+08,-76.1169
1.21157e+08,-75.9672
1.212e+08,-75.655
1.21244e+08,-76.9293
1.21287e+08,-76.5586
1.2133e+08,-76.2685
1.21374e+08,-75.7781
1.21417e+08,-76.181
1.2146e+08,-74.4894
1.21504e+08,-76.423
1.21547e+08,-75.9451
1.21591e+08,-74.5249
1.21634e+08,-75.2156
1.21677e+08,-75.736
1.21721e+08,-75.2348
1.21764e+08,-76.6257
1.21807e+08,-76.2236
1.21851e+08,-76.2235
1.21894e+08,-74.9095
1.21937e+08,-75.6942
1.21981e+08,-75.6327
1.22024e+08,-76.7402
1.22067e+08,-75.9227
1.22111e+08,-74.9654
1.22154e+08,-75.0032
1.22197e+08,-75.0984
1.22241e+08,-74.1717
1.22284e+08,-74.7967
1.22327e+08,-76.7163
1.22371e+08,-75.3509
1.22414e+08,-76.0493
1.22457e+08,-74.9457
1.22501e+08,-76.2439
1.22544e+08,-76.2001
1.22588e+08,-75.985
1.22631e+08,-75.8375
1.22674e+08,-75.4695
1.22718e+08,-76.4202
1.22761e+08,-76.0485
1.22804e+08,-76.287
1.22848e+08,-75.2516
1.22891e+08,-74.9825
1.22934e+08,-74.9824
1.22978e+08,-76.3972
1.23021e+08,-74.9633
1.23064e+08,-75.9838
1.23108e+08,-76.4865
1.23151e+08,-76.1336
1.23194e+08,-77.3366
1.23238e+08,-75.5082
1.23281e+08,-76.1549
1.23324e+08,-75.9832
1.23368e+08,-76.1547
1.23411e+08,-75.9618
1.23454e+08,-76.76
1.23498e+08,-77.0912
1.23541e+08,-76.6215
1.23585e+08,-76.111
1.23628e+08,-75.856
1.23671e+08,-76.2849
1.23715e+08,-76.1756
1.23758e+08,-76.4624
1.23801e+08,-76.7128
1.23845e+08,-76.7823
1.23888e+08,-75.6078
1.23931e+08,-76.6894
1.23975e+08,-76.6663
1.24018e+08,-75.1711
1.24061e+08,-76.4617
1.24105e+08,-75.834
1.24148e+08,-76.5518
1.24191e+08,-76.9223
1.24235e+08,-76.4838
1.24278e+08,-77.1621
1.24321e+08,-76.5061
1.24365e+08,-76.4386
1.24408e+08,-77.1618
1.24451e+08,-75.7708
1.24495e+08,-77.4334
1.24538e+08,-76.1736
1.24582e+08,-76.349
1.24625e+08,-77.6363
1.24668e+08,-76.2826
1.24712e+08,-76.5278
1.24755e+08,-76.3708
1.24798e+08,-76.9446
1.24842e+08,-76.1512
1.24885e+08,-76.1728
1.24928e+08,-76.326
1.24972e+08,-75.3843
1.25015e+08,-75.4439
1.25058e+08,-75.3248
1.25102e+08,-77.1358
1.25145e+08,-75.2267
1.25188e+08,-76.4591
1.25232e+08,-75.8313
1.25275e+08,-75.9999
1.25318e+08,-76.9671
1.25362e+08,-75.6451
1.25405e+08,-76.8487
1.25448e+08,-75.727
1.25492e+08,-75.8307
1.25535e+08,-76.4582
1.25579e+08,-76.6396
1.25622e+08,-75.9778
1.25665e+08,-77.1832
1.25709e+08,-76.4578
1.25752e+08,-76.6621
1.25795e+08,-77.1585
1.25839e+08,-76.7311
1.25882e+08,-77.5565
1.25925e+08,-75.5422
1.25969e+08,-77.2314
1.26012e+08,-77.4549
1.26055e+08,-77.0852
1.26099e+08,-76.9178
1.26142e+08,-75.9131
1.26185e+08,-76.8001
1.26229e+08,-76.0832
1.26272e+08,-76.7999
1.26315e+08,-76.73
1.26359e+08,-76.2786
1.26402e+08,-76.6147
1.26445e+08,-76.7761
1.26489e+08,-77.2547
1.26532e+08,-76.3666
1.26576e+08,-76.6602
1.26619e+08,-76.0608
1.26662e+08,-76.9402
1.26706e+08,-76.9401
1.26749e+08,-76.6828
1.26792e+08,-76.8925
1.26836e+08,-76.9398
1.26879e+08,-77.4027
1.26922e+08,-77.1315
1.26966e+08,-75.3598
1.27009e+08,-76.545
1.27052e+08,-76.5904
1.27096e+08,-76.0811
1.27139e+08,-76.2328
1.27182e+08,-76.4768
1.27226e+08,-76.0593
1.27269e+08,-75.661
1.27312e+08,-76.1888
1.27356e+08,-76.9148
1.27399e+08,-76.2761
1.27442e+08,-76.6581
1.27486e+08,-76.3865
1.27529e+08,-75.438
1.27573e+08,-76.2318
1.27616e+08,-75.599
1.27659e+08,-76.7037
1.27703e+08,-76.6345
1.27746e+08,-76.3637
1.27789e+08,-76.4081
1.27833e+08,-76.1009
1.27876e+08,-77.1535
1.27919e+08,-76.2092
1.27963e+08,-76.6799
1.28006e+08,-76.0575
1.28049e+08,-75.9085
1.28093e+08,-76.1219
1.28136e+08,-76.2743
1.28179e+08,-75.618
1.28223e+08,-75.7618
1.28266e+08,-74.9887
1.28309e+08,-75.8869
1.28353e+08,-74.7085
1.28396e+08,-75.0646
1.28439e+08,-76.2298
1.28483e+08,-76.1426
1.28526e+08,-76.0993
1.2857e+08,-75.7403
1.28613e+08,-76.4509
1.28656e+08,-76.3172
1.287e+08,-74.8186
1.28743e+08,-76.0343
1.28786e+08,-75.9279
1.2883e+08,-76.1418
1.28873e+08,-75.7396
1.28916e+08,-75.1595
1.2896e+08,-75.006
1.29003e+08,-76.7468
1.29046e+08,-75.6773
1.2909e+08,-75.0438
1.29133e+08,-76.0978
1.29176e+08,-76.316
1.2922e+08,-76.4945
1.29263e+08,-75.8427
1.29306e+08,-75.595
1.2935e+08,-75.5745
1.29393e+08,-74.9105
1.29436e+08,-76.3819
1.2948e+08,-76.5391
1.29523e+08,-75.6148
1.29567e+08,-75.4132
1.2961e+08,-75.7171
1.29653e+08,-75.947
1.29697e+08,-75.7791
1.2974e+08,-76.118
1.29783e+08,-75.5532
1.29827e+08,-76.1611
1.2987e+08,-75.042
1.29913e+08,-75.0801
1.29957e+08,-75.9675
1.3e+08,-74.8903
